Timestamp,Sensor,AccX,AccY,AccZ,GyrX,GyrY,GyrZ,MagX,MagY,MagZ,Temp
2026/04/20 22:49:24.02,IMU,-196.78,-102.54,-1002.44,-1.10,-2.65,-3.22,-5.85,7.20,-57.75,42.6
2026/04/20 22:49:24.13,IMU,-198.24,-119.63,-1003.91,-0.03,0.06,-0.63,-3.00,9.30,-60.75,42.6
2026/04/20 22:49:24.23,IMU,-210.45,-125.98,-1010.74,0.54,-3.85,2.79,-2.10,10.50,-61.65,42.8
2026/04/20 22:49:24.33,IMU,-222.66,-96.68,-1010.74,0.81,-2.18,2.40,-3.75,9.60,-61.50,42.6
2026/04/20 22:49:24.43,IMU,-237.79,-117.68,-995.61,0.89,-2.77,0.88,-1.35,10.20,-61.35,42.6
2026/04/20 22:49:24.53,IMU,-253.91,-127.93,-989.75,0.78,-4.48,3.57,-1.80,10.50,-61.35,42.8
2026/04/20 22:49:24.63,IMU,-258.30,-118.65,-993.65,-2.15,-1.83,2.96,-2.70,10.05,-62.85,42.9
2026/04/20 22:49:24.73,IMU,-249.02,-107.91,-1005.86,0.97,0.74,0.98,-2.25,9.30,-61.80,42.8
2026/04/20 22:49:24.83,IMU,-230.96,-111.33,-1010.74,0.09,1.63,0.73,-2.55,8.25,-60.60,42.4
2026/04/20 22:49:24.93,IMU,-235.84,-102.05,-1019.04,-0.04,1.83,0.11,-0.90,8.85,-62.55,42.9
2026/04/20 22:49:25.03,IMU,-214.84,-124.02,-1008.79,-0.96,-2.85,0.51,-3.60,9.75,-60.90,42.6
2026/04/20 22:49:25.13,IMU,-217.29,-109.37,-1009.28,-0.61,0.69,-0.76,-3.45,11.10,-61.05,42.8
2026/04/20 22:49:25.24,IMU,-215.82,-115.23,-1005.37,1.15,0.95,1.59,-2.25,8.40,-60.00,43.0
2026/04/20 22:49:25.34,IMU,-237.79,-90.82,-1015.63,0.44,-0.05,0.03,-2.25,10.35,-62.55,42.6
2026/04/20 22:49:25.44,IMU,-231.93,-109.86,-1001.46,-0.82,-2.54,1.31,-2.25,9.30,-62.25,42.8
2026/04/20 22:49:25.54,IMU,-202.64,-58.59,-967.77,0.41,1.94,2.86,-0.90,9.60,-62.25,42.6
2026/04/20 22:49:25.64,IMU,-253.42,-125.00,-1006.84,-0.09,-2.84,-1.95,-2.70,10.35,-60.00,42.6
2026/04/20 22:49:25.74,IMU,-229.98,-122.07,-1005.86,0.54,-1.09,-0.46,-1.65,10.35,-62.25,42.6
2026/04/20 22:49:25.84,IMU,-252.44,-117.19,-1002.93,0.90,-5.61,-0.80,-2.55,8.70,-62.70,42.6
2026/04/20 22:49:25.94,IMU,-239.75,-112.79,-993.65,0.15,-2.77,3.60,-1.35,9.75,-63.15,42.6
2026/04/20 22:49:26.06,IMU,-245.61,-110.84,-1017.09,-0.13,2.98,-1.10,-3.30,9.75,-61.65,42.6
2026/04/20 22:49:26.16,IMU,-216.31,-107.91,-1000.49,-0.15,0.96,-1.25,-3.60,10.95,-62.40,42.8
2026/04/20 22:49:26.26,IMU,-227.05,-111.82,-1005.37,-0.79,-0.43,0.70,-3.45,10.35,-62.55,43.0
2026/04/20 22:49:26.36,IMU,-229.00,-115.23,-1011.23,-0.51,-0.60,-0.44,-3.00,11.10,-61.05,42.9
2026/04/20 22:49:26.46,IMU,-220.70,-96.68,-989.75,0.98,1.16,1.13,-3.75,10.05,-61.50,42.6
2026/04/20 22:49:26.56,IMU,-182.13,-40.53,-1017.09,-3.36,3.35,-4.14,-3.45,9.60,-60.75,42.8
2026/04/20 22:49:26.66,IMU,-167.48,-126.95,-1148.44,-8.06,20.97,-14.92,-1.35,9.75,-61.95,42.7
2026/04/20 22:49:26.76,IMU,-298.83,-95.70,-955.57,6.00,3.13,-8.32,-2.25,9.60,-62.85,42.8
2026/04/20 22:49:26.86,IMU,-265.63,-128.42,-994.63,-1.67,8.54,-1.33,-1.80,9.75,-62.70,42.7
2026/04/20 22:49:26.96,IMU,-279.30,-104.98,-1012.70,0.15,5.11,-3.25,-2.85,9.45,-62.70,42.8
2026/04/20 22:49:27.06,IMU,-215.82,-230.96,-910.64,10.44,-5.02,6.99,-3.30,10.20,-64.95,42.6
2026/04/20 22:49:27.17,IMU,-497.07,-198.24,-687.50,-16.09,19.00,-8.35,-2.85,9.75,-61.95,42.7
2026/04/20 22:49:27.27,IMU,-372.07,-63.96,-1608.40,12.24,-7.07,3.43,-4.20,10.35,-61.80,42.8
2026/04/20 22:49:27.37,IMU,-250.98,-44.43,-1021.97,-25.19,6.40,12.02,-2.85,9.45,-64.20,42.6
2026/04/20 22:49:27.47,IMU,-186.52,-1.95,-957.03,9.80,9.44,19.43,-2.85,8.25,-64.95,42.8
2026/04/20 22:49:27.57,IMU,-195.80,-83.98,-1034.18,-2.15,11.94,-3.78,-3.30,10.50,-61.65,42.6
2026/04/20 22:49:27.67,IMU,-205.08,-93.75,-954.10,-19.48,-2.52,-2.08,-2.85,8.70,-63.75,43.0
2026/04/20 22:49:27.77,IMU,-148.93,4.88,-1015.63,-31.37,15.24,28.73,-4.95,11.10,-62.85,42.9
2026/04/20 22:49:27.87,IMU,-216.80,76.66,-1033.69,-30.76,114.95,-18.28,-2.85,10.95,-65.25,42.6
2026/04/20 22:49:27.97,IMU,-59.08,-7.32,-908.20,-17.34,-102.05,-82.79,-9.75,10.80,-68.25,42.6
2026/04/20 22:49:28.07,IMU,725.59,1999.94,-1470.70,20.20,59.22,219.33,-9.30,11.55,-66.15,42.5
2026/04/20 22:49:28.18,IMU,-248.54,-36.13,-1000.00,-26.63,-7.85,-53.31,-9.30,12.30,-64.65,42.6
2026/04/20 22:49:28.28,IMU,-167.97,5.86,-1286.13,-4.95,-2.06,8.24,-10.05,15.75,-65.40,42.8
2026/04/20 22:49:28.38,IMU,-214.36,-109.37,-1019.04,28.06,21.92,85.07,-15.60,16.80,-65.40,42.8
2026/04/20 22:49:28.48,IMU,-310.55,843.26,-927.25,-36.87,5.38,81.64,5.70,20.25,-62.85,42.8
2026/04/20 22:49:28.58,IMU,-125.98,148.93,-811.52,-26.82,36.82,-28.57,4.35,29.55,-59.55,42.8
2026/04/20 22:49:28.68,IMU,-564.45,192.87,91.80,-132.94,187.87,-161.71,-3.45,26.70,-64.35,42.8
2026/04/20 22:49:28.78,IMU,483.89,1938.48,-1242.19,250.13,-250.14,250.13,-29.55,46.80,-56.40,42.8
2026/04/20 22:49:28.88,IMU,119.14,-494.14,-1051.76,77.50,-114.18,68.52,-24.45,54.75,-46.65,42.8
2026/04/20 22:49:28.98,IMU,8.30,1255.37,-552.73,250.13,250.13,10.37,-21.45,47.25,-44.10,42.9
2026/04/20 22:49:29.08,IMU,363.28,398.93,-731.45,-61.58,25.99,145.40,-19.20,47.25,-49.50,42.8
2026/04/20 22:49:29.19,IMU,337.40,872.07,-713.38,28.03,-28.21,-35.05,-21.15,46.50,-45.15,42.9
2026/04/20 22:49:29.29,IMU,236.33,647.95,-643.07,-18.27,26.03,-11.45,-22.20,46.05,-46.35,42.6
2026/04/20 22:49:29.39,IMU,352.05,694.34,-625.49,2.59,-12.06,18.02,-20.70,46.50,-44.55,42.6
2026/04/20 22:49:29.49,IMU,294.92,653.32,-655.27,5.53,6.40,-12.92,-21.60,48.15,-46.20,42.6
2026/04/20 22:49:29.59,IMU,347.66,744.63,-722.66,18.21,-3.31,17.79,-20.70,45.75,-44.85,42.6
2026/04/20 22:49:29.69,IMU,312.50,719.73,-606.45,-36.46,42.07,-17.94,-19.20,48.30,-46.35,42.6
2026/04/20 22:49:29.79,IMU,302.25,729.98,-583.01,2.82,7.95,3.26,-19.80,45.45,-46.50,42.6
2026/04/20 22:49:29.89,IMU,304.69,741.70,-689.45,-39.69,71.37,-9.02,-22.20,48.75,-43.80,42.5
2026/04/20 22:49:29.99,IMU,358.89,695.31,-623.05,-48.98,54.87,-11.53,-22.20,46.05,-47.10,42.6
2026/04/20 22:49:30.09,IMU,241.21,676.76,-579.59,-9.48,-5.15,20.49,-21.60,46.95,-46.50,42.5
2026/04/20 22:49:30.19,IMU,343.75,753.42,-608.40,-17.62,10.44,8.00,-22.95,46.50,-46.35,42.3
2026/04/20 22:49:30.30,IMU,286.13,647.95,-656.74,-0.60,-3.44,2.40,-19.80,46.95,-47.25,42.6
2026/04/20 22:49:30.40,IMU,386.23,806.64,-672.85,0.97,-25.41,-4.79,-20.85,46.20,-44.25,42.5
2026/04/20 22:49:30.50,IMU,280.76,684.08,-623.54,-18.70,19.92,-0.47,-20.85,46.65,-47.25,42.3
2026/04/20 22:49:30.60,IMU,293.95,737.30,-609.38,-20.40,24.17,1.08,-21.60,46.20,-45.75,42.3
2026/04/20 22:49:30.70,IMU,275.88,702.15,-601.56,-10.24,8.29,7.44,-21.45,45.75,-45.15,42.3
2026/04/20 22:49:30.80,IMU,314.94,738.77,-600.10,-12.02,8.02,3.81,-20.70,46.80,-46.35,42.3
2026/04/20 22:49:30.90,IMU,295.41,676.27,-623.05,18.09,-21.81,6.51,-20.55,45.90,-47.25,42.1
2026/04/20 22:49:31.00,IMU,357.91,727.05,-603.52,-2.09,2.39,-9.91,-19.80,46.95,-47.25,42.1
2026/04/20 22:49:31.10,IMU,314.45,690.92,-587.40,1.85,1.38,-8.37,-20.55,46.95,-46.20,42.4
2026/04/20 22:49:31.21,IMU,392.58,627.44,-606.93,8.95,0.98,-14.17,-21.60,43.65,-46.80,42.1
2026/04/20 22:49:31.31,IMU,219.24,819.34,-439.45,-0.05,7.63,15.39,-21.15,44.55,-45.90,42.3
2026/04/20 22:49:31.41,IMU,295.90,753.42,-619.63,20.89,-26.52,8.00,-19.80,46.95,-45.45,42.1
2026/04/20 22:49:31.51,IMU,354.98,682.62,-609.86,11.43,-4.10,-15.02,-21.60,47.70,-48.60,41.9
2026/04/20 22:49:31.61,IMU,296.88,687.99,-623.54,-5.92,12.15,-5.68,-20.70,46.50,-47.10,42.2
2026/04/20 22:49:31.71,IMU,315.43,720.21,-588.38,-19.70,15.52,15.37,-20.10,46.65,-47.25,41.9
2026/04/20 22:49:31.81,IMU,333.50,664.55,-638.67,-7.76,6.85,1.47,-23.25,48.00,-46.65,42.0
2026/04/20 22:49:31.91,IMU,355.96,749.02,-544.43,-2.79,0.08,3.08,-21.15,46.80,-43.80,41.7
2026/04/20 22:49:32.01,IMU,316.41,715.33,-575.68,-9.29,12.79,-9.45,-20.10,46.20,-45.45,41.9
2026/04/20 22:49:32.11,IMU,306.15,739.75,-534.18,-1.11,-2.34,-0.73,-22.05,47.40,-45.75,41.7
2026/04/20 22:49:32.21,IMU,306.64,720.70,-576.66,-3.00,3.96,1.46,-21.60,45.45,-45.45,42.2
2026/04/20 22:49:32.32,IMU,315.92,744.14,-544.43,0.45,-4.42,2.79,-20.55,46.20,-45.75,41.9
2026/04/20 22:49:32.42,IMU,297.85,698.73,-586.91,2.11,-7.06,1.54,-20.85,46.95,-46.50,41.8
2026/04/20 22:49:32.52,IMU,332.52,695.31,-601.07,7.19,6.21,-5.60,-19.95,46.05,-44.85,41.9
2026/04/20 22:49:32.62,IMU,326.66,717.77,-564.94,-0.23,2.89,-3.22,-21.30,45.90,-45.45,41.9
2026/04/20 22:49:32.72,IMU,315.43,711.43,-587.40,-0.71,1.53,-4.62,-22.20,46.50,-47.10,41.7
2026/04/20 22:49:32.82,IMU,316.41,708.98,-585.45,-2.02,-2.02,0.74,-21.75,48.00,-45.15,41.7
2026/04/20 22:49:32.92,IMU,321.78,721.68,-583.98,-1.05,0.08,0.19,-21.30,47.40,-43.95,41.8
2026/04/20 22:49:33.04,IMU,301.27,731.45,-585.45,-0.94,-0.69,-1.71,-20.85,46.20,-44.70,41.7
2026/04/20 22:49:33.14,IMU,317.87,718.26,-573.24,-0.17,-0.35,3.24,-20.85,47.70,-46.20,41.7
2026/04/20 22:49:33.24,IMU,323.73,724.12,-571.78,-0.44,-0.04,-0.10,-21.15,47.55,-46.65,41.4
2026/04/20 22:49:33.34,IMU,329.59,719.73,-595.21,1.69,-0.31,-1.02,-20.85,46.95,-45.45,41.7
2026/04/20 22:49:33.44,IMU,320.80,710.45,-582.03,-0.01,1.99,1.45,-22.05,45.90,-44.70,41.7
2026/04/20 22:49:33.54,IMU,313.96,726.07,-587.40,0.31,-0.49,4.44,-20.10,46.65,-45.75,41.6
2026/04/20 22:49:33.64,IMU,312.50,726.07,-570.80,0.02,0.22,0.83,-20.70,47.25,-45.90,41.5
2026/04/20 22:49:33.74,IMU,322.75,719.24,-575.20,2.24,-0.20,0.69,-22.20,46.05,-43.05,41.4
2026/04/20 22:49:33.84,IMU,325.68,723.63,-560.55,1.16,-0.66,-1.25,-21.45,49.05,-44.55,41.3
2026/04/20 22:49:33.94,IMU,327.15,704.10,-573.73,1.25,0.15,1.45,-20.55,46.65,-45.75,41.4
2026/04/20 22:49:34.04,IMU,320.80,717.77,-580.08,0.29,-0.93,1.13,-22.80,46.20,-45.00,41.3
2026/04/20 22:49:34.15,IMU,321.29,727.05,-577.15,-1.27,-0.02,-0.75,-21.75,46.80,-45.60,41.4
2026/04/20 22:49:34.25,IMU,324.71,732.91,-563.96,-1.51,0.71,-0.15,-21.30,46.95,-44.70,41.4
2026/04/20 22:49:34.35,IMU,338.87,616.21,-660.64,7.15,-6.62,6.82,-21.75,47.25,-45.15,41.3
2026/04/20 22:49:34.45,IMU,330.08,732.91,-689.94,-1.02,17.22,3.88,-20.70,45.75,-45.15,41.3
2026/04/20 22:49:34.55,IMU,322.27,766.11,-608.40,-6.22,-15.63,9.99,-22.80,47.70,-44.70,41.0
2026/04/20 22:49:34.65,IMU,315.43,732.91,-534.67,0.90,3.08,2.80,-20.70,47.25,-44.85,41.2
2026/04/20 22:49:34.75,IMU,313.96,669.92,-604.49,0.82,-1.37,1.20,-21.30,46.95,-45.75,41.0
2026/04/20 22:49:34.85,IMU,341.80,716.31,-591.31,2.30,-0.69,-4.05,-22.80,48.15,-45.75,41.2
2026/04/20 22:49:34.95,IMU,337.89,713.38,-601.07,5.28,-0.57,-1.49,-21.75,46.80,-45.60,40.9
2026/04/20 22:49:35.05,IMU,452.15,867.68,-687.50,-9.86,0.50,-2.87,-20.55,47.70,-45.45,41.2
2026/04/20 22:49:35.16,IMU,305.18,705.57,-600.59,-5.31,1.58,-0.91,-20.85,46.65,-46.50,41.0
2026/04/20 22:49:35.26,IMU,314.94,716.31,-599.12,-1.24,1.09,1.28,-21.60,47.40,-45.45,41.1
2026/04/20 22:49:35.36,IMU,327.15,722.17,-578.61,-2.50,-0.41,1.58,-21.30,45.15,-44.25,41.2
2026/04/20 22:49:35.46,IMU,328.13,727.54,-587.40,-1.51,-1.95,-3.80,-21.75,46.50,-44.85,40.7
2026/04/20 22:49:35.56,IMU,310.06,729.49,-578.61,-1.43,-0.21,-1.19,-22.05,47.40,-45.00,41.0
2026/04/20 22:49:35.66,IMU,313.48,727.05,-583.98,-0.78,0.05,-1.25,-21.60,48.15,-46.20,41.0
2026/04/20 22:49:35.76,IMU,308.11,727.05,-589.36,0.08,2.20,0.27,-21.75,47.55,-44.85,40.8
2026/04/20 22:49:35.86,IMU,320.31,716.80,-592.29,0.53,0.33,-1.01,-19.95,46.05,-44.85,40.7
2026/04/20 22:49:35.96,IMU,323.73,726.07,-591.31,-2.37,0.98,0.46,-20.55,45.45,-44.70,41.0
2026/04/20 22:49:36.06,IMU,321.29,723.63,-583.50,-0.99,1.47,0.90,-20.55,46.95,-45.75,40.7
2026/04/20 22:49:36.16,IMU,313.96,718.26,-587.89,1.39,-1.07,-1.15,-21.15,46.50,-45.60,40.7
2026/04/20 22:49:36.27,IMU,317.38,731.45,-578.13,0.59,-0.80,-0.64,-21.45,46.80,-44.10,40.6
2026/04/20 22:49:36.37,IMU,310.55,727.05,-588.38,1.20,0.86,-0.41,-20.70,48.00,-44.55,40.5
2026/04/20 22:49:36.47,IMU,319.34,736.33,-589.84,-0.75,0.61,2.23,-21.45,47.25,-45.15,40.7
2026/04/20 22:49:36.57,IMU,300.29,722.17,-590.33,-1.64,1.73,-0.56,-21.60,45.15,-45.45,40.5
2026/04/20 22:49:36.67,IMU,316.41,728.52,-568.36,-1.04,1.47,1.43,-21.30,45.45,-44.70,40.5
2026/04/20 22:49:36.77,IMU,327.15,736.33,-584.47,-1.21,-0.95,-1.89,-21.30,46.65,-44.70,40.6
2026/04/20 22:49:36.87,IMU,310.06,721.19,-565.43,0.29,1.67,-1.85,-20.40,45.30,-46.35,40.7
2026/04/20 22:49:36.97,IMU,320.80,726.07,-597.17,0.25,1.34,-0.07,-21.30,46.95,-45.75,40.4
2026/04/20 22:49:37.07,IMU,331.05,738.28,-570.80,-1.63,1.40,-2.06,-19.95,46.05,-44.85,40.5
2026/04/20 22:49:37.17,IMU,342.77,812.50,-544.43,48.18,11.92,-42.79,-20.55,46.65,-45.75,40.5
2026/04/20 22:49:37.28,IMU,295.90,660.16,-252.44,34.84,-22.50,-31.30,-19.95,46.50,-44.85,40.6
2026/04/20 22:49:37.38,IMU,330.57,725.59,-569.82,-0.79,-3.11,4.91,-21.30,45.45,-43.65,40.5
2026/04/20 22:49:37.48,IMU,294.92,835.94,-625.00,-13.47,13.54,-31.01,-19.95,46.05,-46.35,40.5
2026/04/20 22:49:37.58,IMU,291.99,696.78,-512.70,8.54,11.79,-19.34,-20.55,45.45,-45.45,40.5
2026/04/20 22:49:37.68,IMU,321.78,707.03,-565.43,-0.86,-0.17,6.44,-20.40,46.05,-44.85,40.7
2026/04/20 22:49:37.78,IMU,367.19,819.34,-462.40,-30.69,-3.58,14.07,-22.20,48.30,-46.35,40.3
2026/04/20 22:49:37.88,IMU,370.61,476.56,-698.73,35.31,14.44,-69.50,-20.70,48.30,-44.85,40.4
2026/04/20 22:49:37.98,IMU,331.54,711.91,-554.69,-8.72,1.08,15.57,-21.15,47.25,-45.15,40.5
2026/04/20 22:49:38.08,IMU,408.69,823.24,-551.27,85.24,-28.37,-48.63,-20.70,46.05,-45.15,40.3
2026/04/20 22:49:38.18,IMU,61.04,297.85,-704.59,-127.19,110.46,23.87,-18.15,47.55,-50.25,40.3
2026/04/20 22:49:38.28,IMU,234.86,683.59,-412.60,8.44,-17.42,13.43,-22.80,48.15,-45.00,40.2
2026/04/20 22:49:38.39,IMU,345.70,670.41,-732.91,10.49,8.30,-6.21,-24.45,46.50,-39.15,40.4
2026/04/20 22:49:38.49,IMU,301.76,699.71,-605.96,-2.34,0.44,5.21,-21.30,46.65,-44.70,40.5
2026/04/20 22:49:38.59,IMU,318.85,737.30,-571.78,0.35,-1.44,-0.94,-22.80,45.15,-45.45,40.2
2026/04/20 22:49:38.69,IMU,319.34,723.63,-578.13,0.21,0.80,-1.60,-21.30,47.40,-44.70,40.2
2026/04/20 22:49:38.79,IMU,308.59,713.87,-578.61,0.08,-0.79,-0.63,-18.30,45.15,-44.70,40.2
2026/04/20 22:49:38.89,IMU,309.08,729.49,-582.52,-0.21,3.07,-1.34,-20.40,44.85,-44.85,40.3
2026/04/20 22:49:38.99,IMU,297.85,733.40,-575.20,0.21,-1.28,0.18,-21.45,48.00,-44.10,40.3
2026/04/20 22:49:39.09,IMU,318.36,730.47,-580.08,-0.82,-0.25,-1.47,-21.45,47.25,-45.15,40.2
2026/04/20 22:49:39.20,IMU,320.31,730.47,-583.01,-1.39,1.00,0.95,-20.85,46.20,-44.70,40.1
2026/04/20 22:49:39.30,IMU,305.66,729.98,-596.19,-0.37,1.64,0.89,-20.55,46.20,-46.20,40.0
2026/04/20 22:49:39.40,IMU,319.34,731.45,-571.29,1.09,-1.21,3.11,-20.70,47.55,-44.85,40.2
2026/04/20 22:49:39.50,IMU,306.64,722.17,-582.03,-0.02,-0.60,2.25,-21.15,47.55,-46.35,40.0
2026/04/20 22:49:39.60,IMU,307.62,713.38,-682.13,6.08,1.82,1.12,-20.40,48.30,-46.35,40.0
2026/04/20 22:49:39.70,IMU,340.33,860.84,-601.56,-24.63,-8.92,-1.06,-20.10,47.40,-45.75,40.0
2026/04/20 22:49:39.80,IMU,317.87,692.38,-579.10,17.89,-3.88,2.37,-19.95,47.25,-45.15,40.0
2026/04/20 22:49:39.90,IMU,254.88,782.23,-333.50,-92.40,74.81,-63.74,-20.55,48.90,-45.45,40.2
2026/04/20 22:49:40.00,IMU,308.59,744.63,-624.51,29.37,4.44,25.37,-20.70,46.80,-44.55,40.1
2026/04/20 22:49:40.10,IMU,314.94,745.12,-586.91,6.56,-3.75,-2.18,-21.15,46.80,-44.10,40.2
2026/04/20 22:49:40.20,IMU,304.69,707.03,-560.06,1.72,-2.95,-3.37,-20.10,45.90,-46.20,39.9
2026/04/20 22:49:40.31,IMU,404.79,742.68,-226.56,-4.38,36.73,31.31,-21.75,46.80,-44.55,40.1
2026/04/20 22:49:40.41,IMU,334.47,711.91,-551.27,11.54,-8.42,16.89,-21.75,47.25,-45.15,40.0
2026/04/20 22:49:40.51,IMU,136.23,582.03,-538.57,74.31,-63.93,-8.99,-19.65,46.80,-47.10,40.1
2026/04/20 22:49:40.61,IMU,304.20,689.45,-782.23,31.07,-9.37,-4.08,-17.70,43.80,-49.50,40.1
2026/04/20 22:49:40.71,IMU,148.93,585.94,-730.96,-11.08,3.89,-1.82,-18.30,43.65,-53.70,40.0
2026/04/20 22:49:40.81,IMU,217.29,566.41,-765.63,0.15,4.31,-21.05,-13.95,39.75,-53.70,40.2
2026/04/20 22:49:40.91,IMU,262.70,646.48,-799.32,-6.18,13.68,14.61,-15.45,39.00,-52.95,40.1
2026/04/20 22:49:41.01,IMU,198.73,629.39,-795.90,-13.32,19.11,-15.82,-15.75,38.70,-52.95,40.0
2026/04/20 22:49:41.11,IMU,198.24,593.26,-782.23,-6.67,4.75,12.75,-16.65,41.10,-56.10,40.2
2026/04/20 22:49:41.21,IMU,244.14,563.96,-768.07,-18.48,17.05,1.32,-13.50,41.70,-55.80,40.1
2026/04/20 22:49:41.32,IMU,203.61,481.45,-728.03,-31.04,43.23,-14.22,-15.90,43.80,-54.30,40.0
2026/04/20 22:49:41.42,IMU,599.12,1435.06,479.49,73.56,20.04,124.72,-19.95,46.05,-45.15,40.0
2026/04/20 22:49:41.52,IMU,290.53,1032.23,-546.39,-7.81,-5.09,-17.41,-20.55,46.65,-47.25,40.3
2026/04/20 22:49:41.62,IMU,333.98,758.30,-612.30,-10.69,-5.53,15.44,-19.95,46.80,-45.60,40.0
2026/04/20 22:49:41.72,IMU,281.25,746.09,-597.17,1.85,2.08,-8.69,-19.50,46.65,-45.75,40.0
2026/04/20 22:49:41.82,IMU,291.02,748.54,-556.64,-5.38,0.76,-4.31,-20.10,46.65,-45.00,39.9
2026/04/20 22:49:41.92,IMU,312.01,710.94,-581.05,3.57,-5.44,2.76,-19.20,46.50,-45.60,40.2
2026/04/20 22:49:42.03,IMU,297.85,725.10,-564.94,-6.31,3.53,1.95,-21.15,46.50,-45.15,40.0
2026/04/20 22:49:42.13,IMU,308.11,744.14,-595.21,1.40,-1.60,1.56,-19.50,47.40,-45.00,40.3
2026/04/20 22:49:42.23,IMU,303.71,720.70,-590.82,-4.47,-3.48,1.73,-19.05,45.45,-44.70,39.9
2026/04/20 22:49:42.33,IMU,298.83,728.03,-572.27,0.81,1.50,-0.03,-19.95,45.30,-44.10,40.1
2026/04/20 22:49:42.43,IMU,293.95,730.96,-584.96,-0.78,-0.53,2.65,-18.90,45.75,-44.55,40.1
2026/04/20 22:49:42.53,IMU,293.95,731.45,-573.24,1.50,0.70,-1.09,-20.55,47.40,-45.00,39.9
2026/04/20 22:49:42.63,IMU,299.32,731.45,-583.50,-1.76,-1.09,-2.61,-20.85,45.90,-46.80,39.9
2026/04/20 22:49:42.73,IMU,294.92,721.19,-584.96,1.14,-1.27,0.27,-21.15,46.50,-45.15,39.8
2026/04/20 22:49:42.84,IMU,303.22,728.03,-592.77,-1.41,-0.45,4.06,-20.40,45.75,-45.15,40.0
2026/04/20 22:49:42.94,IMU,300.29,733.89,-577.64,0.92,1.35,1.28,-20.55,45.45,-45.45,39.8
2026/04/20 22:49:43.04,IMU,321.29,742.68,-582.52,-1.23,-2.41,-1.15,-19.20,46.80,-45.15,39.9
2026/04/20 22:49:43.14,IMU,294.43,741.21,-593.75,-0.05,0.75,1.61,-19.80,44.40,-45.45,39.8
2026/04/20 22:49:43.24,IMU,292.97,736.33,-602.54,-0.69,-2.02,0.10,-20.55,46.20,-45.00,39.8
2026/04/20 22:49:43.34,IMU,304.20,730.47,-595.70,0.18,-1.22,-0.48,-19.95,45.75,-45.90,39.6
2026/04/20 22:49:43.44,IMU,305.18,739.26,-594.73,-0.81,2.12,-1.40,-18.75,46.20,-45.45,39.7
2026/04/20 22:49:43.54,IMU,298.34,739.26,-580.08,-0.65,-0.36,0.89,-20.40,46.80,-44.85,39.7
2026/04/20 22:49:43.64,IMU,302.73,717.77,-575.68,0.60,0.82,1.77,-20.40,47.25,-44.55,39.6
2026/04/20 22:49:43.74,IMU,290.53,729.98,-582.03,1.94,2.44,-2.10,-21.30,46.95,-44.25,39.6
2026/04/20 22:49:43.84,IMU,295.41,739.75,-581.54,-0.26,1.26,-0.93,-19.80,47.40,-45.00,39.5
2026/04/20 22:49:43.95,IMU,309.57,723.63,-586.43,-0.31,-0.03,-0.39,-19.95,44.85,-45.15,39.7
2026/04/20 22:49:44.05,IMU,301.27,729.49,-599.61,-1.56,-0.30,0.24,-19.20,46.05,-46.35,39.8
2026/04/20 22:49:44.15,IMU,298.83,727.54,-591.31,-1.26,3.45,1.11,-19.65,46.05,-44.85,39.6
2026/04/20 22:49:44.25,IMU,306.15,730.96,-584.47,2.32,-0.34,-0.15,-22.05,48.60,-46.20,39.4
2026/04/20 22:49:44.35,IMU,305.66,729.98,-579.10,-0.25,-1.82,-1.66,-20.55,45.45,-46.50,39.4
2026/04/20 22:49:44.45,IMU,296.39,727.05,-590.82,-1.02,-2.73,2.11,-19.50,46.20,-46.50,39.5
2026/04/20 22:49:44.55,IMU,309.08,727.54,-598.14,0.85,0.43,-1.65,-21.75,44.55,-43.80,39.5
2026/04/20 22:49:44.65,IMU,292.48,730.96,-584.96,2.01,1.12,-0.83,-19.20,46.50,-46.35,39.4
2026/04/20 22:49:44.75,IMU,290.53,728.03,-592.77,0.69,2.07,1.56,-18.30,48.15,-45.00,39.4
2026/04/20 22:49:44.87,IMU,296.39,736.82,-578.13,1.49,-1.18,-1.07,-20.70,46.05,-45.60,39.3
2026/04/20 22:49:44.97,IMU,303.22,738.28,-597.17,3.91,0.58,3.32,-20.85,44.70,-46.20,39.1
2026/04/20 22:49:45.07,IMU,310.06,730.96,-587.89,0.31,1.64,-1.79,-21.60,46.20,-44.70,39.1
2026/04/20 22:49:45.17,IMU,291.99,721.68,-589.36,0.60,0.89,-1.15,-18.90,47.55,-47.10,39.0
2026/04/20 22:49:45.27,IMU,298.83,737.79,-596.19,0.59,0.08,1.63,-21.15,48.30,-45.60,39.2
2026/04/20 22:49:45.37,IMU,309.57,730.96,-600.10,-0.36,2.32,-1.24,-20.55,46.95,-46.20,38.9
2026/04/20 22:49:45.47,IMU,312.01,732.91,-606.93,0.83,-0.44,-0.73,-19.65,46.80,-46.35,39.1
2026/04/20 22:49:45.57,IMU,295.41,726.07,-585.45,-1.67,-2.60,1.19,-22.05,46.95,-42.90,38.9
2026/04/20 22:49:45.67,IMU,294.92,728.03,-586.91,-0.81,1.53,-1.27,-20.55,45.15,-46.80,39.1
2026/04/20 22:49:45.77,IMU,301.76,736.33,-599.12,0.95,0.69,0.39,-20.55,45.45,-46.50,39.0
2026/04/20 22:49:45.88,IMU,302.25,722.17,-599.12,1.18,0.27,-1.40,-19.20,46.05,-44.10,39.1
2026/04/20 22:49:45.98,IMU,300.29,723.14,-589.36,0.58,0.36,0.85,-19.95,46.80,-45.60,39.1
2026/04/20 22:49:46.08,IMU,305.66,728.03,-592.77,-0.71,2.37,0.42,-19.65,45.30,-45.15,39.1
2026/04/20 22:49:46.18,IMU,303.22,733.89,-596.19,2.14,0.86,1.92,-20.40,46.50,-45.90,39.1
2026/04/20 22:49:46.28,IMU,303.71,730.96,-579.59,-0.60,0.70,2.31,-19.05,45.90,-45.45,39.0
2026/04/20 22:49:46.38,IMU,299.32,736.82,-589.36,0.18,-0.15,0.21,-21.15,46.05,-46.35,38.9
2026/04/20 22:49:46.48,IMU,297.36,728.52,-585.94,-0.23,1.31,0.18,-20.40,45.30,-46.65,39.0
2026/04/20 22:49:46.59,IMU,299.32,735.84,-583.50,0.69,0.08,-2.28,-20.10,43.95,-43.65,38.9
2026/04/20 22:49:46.69,IMU,297.85,736.33,-581.54,1.12,-0.31,-0.95,-19.95,46.50,-44.85,39.1
2026/04/20 22:49:46.79,IMU,308.59,729.00,-584.47,-2.26,1.31,1.21,-19.20,45.75,-44.85,38.9
2026/04/20 22:49:46.89,IMU,304.20,738.28,-593.26,-1.50,-1.07,1.92,-19.95,46.50,-45.15,38.7
2026/04/20 22:49:46.99,IMU,311.52,731.93,-575.20,-1.43,0.27,3.85,-19.95,48.00,-46.35,38.9
2026/04/20 22:49:47.09,IMU,308.59,730.47,-589.84,0.09,-0.72,-1.82,-20.10,45.45,-45.75,39.1
2026/04/20 22:49:47.19,IMU,295.41,726.56,-586.91,-0.14,-2.94,-0.79,-19.20,45.30,-44.55,39.0
2026/04/20 22:49:47.29,IMU,296.39,724.61,-589.84,2.61,-0.40,-0.11,-19.50,46.95,-46.50,39.0
2026/04/20 22:49:47.39,IMU,314.45,737.30,-570.80,0.18,0.53,2.32,-19.80,46.65,-46.20,38.9
2026/04/20 22:49:47.49,IMU,295.41,730.47,-588.38,-0.66,0.25,-0.86,-19.95,44.85,-45.15,38.9
2026/04/20 22:49:47.60,IMU,299.32,742.19,-586.91,-1.28,0.50,-0.36,-19.80,44.70,-46.20,38.9
2026/04/20 22:49:47.70,IMU,305.18,724.12,-582.52,-0.69,0.86,-0.05,-20.85,46.20,-45.00,38.8
2026/04/20 22:49:47.80,IMU,297.36,734.86,-586.43,0.26,0.84,0.86,-19.50,45.90,-44.70,39.0
2026/04/20 22:49:47.90,IMU,303.22,729.98,-599.12,-0.95,0.06,0.68,-19.80,46.95,-44.70,39.1
2026/04/20 22:49:48.00,IMU,305.66,752.93,-586.43,-0.19,0.35,-0.09,-19.20,45.30,-47.40,38.9
2026/04/20 22:49:48.10,IMU,294.92,727.54,-602.05,3.02,-0.57,-0.82,-20.55,46.65,-46.50,38.6
2026/04/20 22:49:48.20,IMU,299.32,727.54,-593.26,-0.39,0.50,0.32,-20.40,46.50,-47.40,38.4
2026/04/20 22:49:48.30,IMU,303.22,738.28,-590.82,0.75,-1.21,-0.32,-19.65,44.55,-45.90,38.6
2026/04/20 22:49:48.40,IMU,296.88,735.35,-588.38,-0.19,-0.55,0.45,-20.70,44.55,-45.60,38.9
2026/04/20 22:49:48.50,IMU,295.90,743.65,-595.21,-0.25,1.36,-1.23,-19.05,46.65,-45.75,38.6
2026/04/20 22:49:48.60,IMU,300.78,729.98,-590.82,-0.62,-0.44,2.01,-19.20,46.05,-45.60,38.8
2026/04/20 22:49:48.71,IMU,304.69,727.05,-593.26,-0.94,-0.50,-0.24,-19.95,46.50,-46.35,38.6
2026/04/20 22:49:48.81,IMU,293.46,738.77,-591.80,-0.57,-0.02,1.05,-19.50,45.15,-45.75,38.5
2026/04/20 22:49:48.91,IMU,306.15,733.89,-586.43,0.37,-0.02,0.52,-20.10,45.90,-45.00,38.4
2026/04/20 22:49:49.01,IMU,297.36,730.47,-585.45,-0.28,-0.74,-0.34,-20.55,44.70,-45.45,38.6
2026/04/20 22:49:49.11,IMU,298.83,731.45,-600.10,1.59,-1.44,3.31,-19.50,44.70,-46.80,38.3
2026/04/20 22:49:49.21,IMU,304.69,733.40,-584.96,-0.21,0.69,0.05,-18.90,46.05,-45.90,38.5
2026/04/20 22:49:49.31,IMU,301.27,724.61,-588.38,0.51,3.34,0.84,-20.70,45.75,-46.35,38.4
2026/04/20 22:49:49.41,IMU,306.15,729.00,-598.14,1.82,2.54,-1.32,-20.70,45.75,-45.90,38.3
2026/04/20 22:49:49.51,IMU,308.59,733.89,-583.01,-1.00,0.21,-0.93,-20.70,45.30,-46.35,38.6
2026/04/20 22:49:49.61,IMU,307.13,742.68,-600.10,-1.69,1.18,-1.32,-19.80,46.65,-46.50,38.3
2026/04/20 22:49:49.71,IMU,311.52,727.05,-580.08,0.30,0.32,-0.29,-19.65,46.05,-45.60,38.3
2026/04/20 22:49:49.82,IMU,304.20,741.70,-593.26,-1.73,0.16,-0.58,-21.45,45.30,-45.90,38.2
2026/04/20 22:49:49.92,IMU,302.73,731.93,-584.96,-0.15,0.89,-0.34,-20.55,44.40,-47.25,38.5
2026/04/20 22:49:50.02,IMU,299.80,728.03,-583.50,-1.31,1.21,1.27,-20.55,47.70,-45.00,38.2
2026/04/20 22:49:50.12,IMU,301.27,729.49,-585.94,-0.59,-0.05,-1.33,-21.60,45.15,-46.50,38.2
2026/04/20 22:49:50.22,IMU,296.39,731.45,-599.12,-2.02,-0.51,-0.46,-19.95,44.85,-45.90,38.5
2026/04/20 22:49:50.32,IMU,300.78,732.42,-600.10,-1.50,1.06,-1.17,-20.10,45.45,-45.75,38.4
2026/04/20 22:49:50.42,IMU,299.80,733.89,-586.43,-3.15,-0.18,0.39,-19.05,47.40,-46.50,38.2
2026/04/20 22:49:50.52,IMU,306.15,734.38,-589.84,0.82,1.18,0.21,-20.85,44.70,-46.20,38.2
2026/04/20 22:49:50.62,IMU,296.39,738.77,-602.54,2.18,2.05,-2.41,-19.95,46.05,-46.35,38.3
2026/04/20 22:49:50.72,IMU,302.73,731.93,-596.68,0.59,2.88,-1.95,-18.75,45.45,-45.00,38.3
2026/04/20 22:49:50.82,IMU,299.80,728.03,-593.75,0.21,-0.73,-1.02,-20.70,47.25,-44.85,38.1
2026/04/20 22:49:50.92,IMU,302.25,731.93,-600.10,-1.63,1.15,-2.11,-21.15,46.50,-46.35,38.2
2026/04/20 22:49:51.04,IMU,302.73,738.28,-591.80,-2.96,-0.20,-1.82,-20.40,47.55,-47.10,38.0
2026/04/20 22:49:51.14,IMU,304.20,740.23,-593.26,1.01,-1.63,0.08,-19.50,46.20,-45.75,38.2
2026/04/20 22:49:51.24,IMU,302.25,729.00,-585.94,-1.24,-0.25,1.79,-18.30,46.20,-45.45,38.0
2026/04/20 22:49:51.34,IMU,310.06,718.26,-588.38,-0.86,-1.69,-1.85,-20.55,46.65,-45.75,38.3
2026/04/20 22:49:51.44,IMU,303.71,730.47,-585.94,-0.44,0.32,-0.21,-20.10,46.65,-45.75,38.0
2026/04/20 22:49:51.54,IMU,303.22,727.05,-586.91,1.14,-0.50,-0.36,-19.05,46.20,-47.25,38.2
2026/04/20 22:49:51.64,IMU,287.11,730.47,-582.52,0.78,1.00,-0.03,-20.70,47.55,-47.10,38.2
2026/04/20 22:49:51.74,IMU,304.20,741.70,-584.47,0.21,0.51,0.23,-19.50,46.65,-45.45,38.2
2026/04/20 22:49:51.84,IMU,296.39,734.86,-583.50,-0.85,-0.11,2.48,-19.50,45.90,-45.45,38.2
2026/04/20 22:49:51.95,IMU,310.06,748.05,-605.47,-1.93,-1.49,0.42,-18.75,46.20,-45.45,38.2
2026/04/20 22:49:52.05,IMU,304.20,748.54,-585.45,0.22,-0.47,-1.91,-19.50,46.65,-46.80,38.2
2026/04/20 22:49:52.15,IMU,316.89,736.33,-591.80,-0.40,-0.56,2.76,-19.20,47.25,-45.60,37.9
2026/04/20 22:49:52.25,IMU,294.43,726.56,-592.29,0.52,1.73,-0.41,-20.55,45.15,-46.20,38.0
2026/04/20 22:49:52.35,IMU,300.78,738.28,-591.31,-0.08,0.95,1.78,-19.20,46.50,-46.65,38.2
2026/04/20 22:49:52.45,IMU,302.73,733.89,-589.36,0.35,1.57,0.38,-20.40,45.75,-44.85,38.0
2026/04/20 22:49:52.55,IMU,303.22,727.05,-588.87,-0.32,-0.94,1.11,-19.80,46.65,-45.75,38.3
2026/04/20 22:49:52.65,IMU,294.92,743.16,-589.36,-0.75,2.35,-1.39,-20.10,45.45,-45.75,38.0
2026/04/20 22:49:52.75,IMU,310.55,740.23,-595.21,0.44,1.77,-1.79,-22.95,43.80,-40.95,38.0
2026/04/20 22:49:52.85,IMU,309.08,723.63,-573.24,0.58,-0.19,2.11,-19.65,45.75,-46.35,37.9
2026/04/20 22:49:52.95,IMU,296.88,729.49,-573.24,-0.92,-0.40,-1.66,-20.40,46.50,-46.35,38.0
2026/04/20 22:49:53.06,IMU,297.36,732.91,-590.33,0.27,1.47,0.69,-20.55,45.45,-46.80,38.1
2026/04/20 22:49:53.16,IMU,296.39,734.38,-583.50,-1.58,-0.24,-1.73,-20.10,45.90,-44.70,38.2
2026/04/20 22:49:53.26,IMU,296.39,741.70,-571.78,-0.88,0.29,1.77,-18.75,46.65,-44.70,38.2
2026/04/20 22:49:53.36,IMU,291.99,735.35,-595.70,0.38,0.40,0.48,-19.95,46.50,-46.65,38.2
2026/04/20 22:49:53.46,IMU,312.01,737.30,-584.96,2.44,-0.90,-0.83,-21.15,45.75,-44.85,38.0
2026/04/20 22:49:53.56,IMU,281.25,725.10,-579.59,-0.15,0.50,0.98,-19.95,46.05,-44.10,37.9
2026/04/20 22:49:53.66,IMU,297.85,737.30,-593.75,-0.18,-1.79,-0.05,-20.40,44.85,-45.15,37.9
2026/04/20 22:49:53.76,IMU,309.08,740.72,-585.45,-0.13,-1.05,-1.50,-22.50,44.85,-41.55,38.2
2026/04/20 22:49:53.86,IMU,301.27,743.16,-583.98,1.60,0.60,-0.05,-20.85,46.20,-45.45,38.0
2026/04/20 22:49:53.96,IMU,292.48,742.68,-583.50,-0.77,0.63,-0.34,-19.65,46.50,-46.35,37.9
2026/04/20 22:49:54.07,IMU,299.80,717.29,-578.13,-0.02,-0.01,-2.14,-20.70,44.85,-45.60,37.9
2026/04/20 22:49:54.17,IMU,306.15,744.14,-591.80,-0.78,-0.38,-0.11,-21.60,47.70,-47.25,38.0
2026/04/20 22:49:54.27,IMU,293.46,736.33,-583.50,-0.05,-0.78,0.67,-19.95,45.75,-44.85,37.7
2026/04/20 22:49:54.37,IMU,300.29,730.47,-580.08,-1.35,2.46,1.18,-19.80,45.15,-46.50,38.0
2026/04/20 22:49:54.47,IMU,308.11,730.47,-587.40,0.75,0.37,-0.20,-21.75,45.75,-47.40,37.9
2026/04/20 22:49:54.57,IMU,302.73,728.52,-586.43,0.11,-2.00,-0.73,-20.40,45.75,-47.10,37.9
2026/04/20 22:49:54.67,IMU,299.80,731.45,-577.15,1.31,2.24,-0.72,-19.65,47.25,-46.35,38.0
2026/04/20 22:49:54.77,IMU,293.46,734.38,-583.50,-0.37,1.53,-0.31,-19.65,46.50,-47.10,38.0
2026/04/20 22:49:54.87,IMU,310.55,743.16,-579.59,-0.37,-1.93,-1.81,-19.65,46.80,-44.55,38.1
2026/04/20 22:49:54.97,IMU,298.34,727.05,-582.03,1.20,-0.23,-0.15,-20.10,45.90,-45.45,37.9
2026/04/20 22:49:55.07,IMU,283.69,730.47,-583.50,-1.29,3.44,-4.02,-19.65,46.05,-48.15,38.0
2026/04/20 22:49:55.17,IMU,288.09,734.86,-583.50,-2.61,0.87,0.02,-20.70,46.05,-47.40,38.0
2026/04/20 22:49:55.28,IMU,291.50,731.45,-570.80,1.03,-0.82,0.70,-20.10,46.65,-46.80,38.2
2026/04/20 22:49:55.38,IMU,297.36,740.72,-580.57,1.24,1.26,-0.37,-20.10,45.90,-46.20,38.0
2026/04/20 22:49:55.48,IMU,298.34,739.75,-583.01,-0.72,-0.48,0.05,-19.50,45.45,-45.45,37.9
2026/04/20 22:49:55.58,IMU,298.34,731.45,-591.80,-0.61,2.01,-0.77,-19.65,45.30,-45.60,37.9
2026/04/20 22:49:55.68,IMU,299.80,737.79,-593.26,-1.56,-1.51,0.35,-20.10,46.95,-44.70,38.0
2026/04/20 22:49:55.78,IMU,291.50,736.33,-583.50,0.34,1.30,1.26,-20.55,44.40,-45.45,37.9
2026/04/20 22:49:55.88,IMU,294.43,740.72,-591.80,0.23,0.34,1.43,-20.10,46.95,-45.45,38.1
2026/04/20 22:49:55.98,IMU,300.29,731.45,-580.57,0.02,-2.02,3.68,-18.90,46.50,-44.85,38.0
2026/04/20 22:49:56.08,IMU,282.23,715.33,-578.61,1.13,0.12,-0.99,-19.50,47.40,-44.70,37.9
2026/04/20 22:49:56.18,IMU,311.52,740.72,-578.61,-0.14,-0.82,1.08,-20.10,46.65,-46.50,38.2
2026/04/20 22:49:56.28,IMU,295.41,737.30,-587.89,0.32,0.53,0.18,-19.20,46.05,-45.60,38.0
2026/04/20 22:49:56.39,IMU,302.73,741.21,-588.38,-1.12,-0.61,1.99,-20.10,44.70,-46.20,38.2
2026/04/20 22:49:56.49,IMU,291.02,733.89,-577.64,-0.32,1.34,1.13,-19.05,46.20,-45.45,38.3
2026/04/20 22:49:56.59,IMU,298.83,724.61,-577.64,-1.50,-0.90,1.68,-19.50,45.45,-45.75,38.4
2026/04/20 22:49:56.69,IMU,312.50,733.89,-581.05,-1.23,2.43,-2.04,-19.20,46.80,-46.35,38.2
2026/04/20 22:49:56.79,IMU,322.27,740.72,-575.68,1.31,0.31,0.99,-20.10,45.45,-46.20,38.2
2026/04/20 22:49:56.89,IMU,303.22,730.47,-574.22,-0.59,0.52,2.89,-19.50,45.45,-45.45,38.1
2026/04/20 22:49:56.99,IMU,293.95,734.38,-582.03,0.25,1.07,-0.38,-20.10,48.90,-45.75,38.2
2026/04/20 22:49:57.09,IMU,302.73,739.26,-565.92,0.29,1.06,1.43,-18.00,45.15,-44.25,38.2
2026/04/20 22:49:57.19,IMU,297.36,737.30,-574.71,2.33,-0.59,-0.77,-20.10,46.95,-46.20,38.2
2026/04/20 22:49:57.29,IMU,309.08,739.75,-577.64,0.33,-0.18,-0.05,-20.85,44.70,-45.00,38.4
2026/04/20 22:49:57.39,IMU,297.36,723.14,-574.22,0.47,1.75,-1.11,-19.80,45.90,-45.45,38.2
2026/04/20 22:49:57.49,IMU,299.80,739.26,-574.22,-1.51,-2.12,-2.02,-19.20,46.05,-45.60,38.4
2026/04/20 22:49:57.60,IMU,304.69,733.89,-585.94,1.25,-1.18,1.45,-20.40,46.05,-46.65,38.2
2026/04/20 22:49:57.70,IMU,306.64,729.49,-579.59,0.40,0.80,-1.25,-19.50,46.95,-44.70,38.4
2026/04/20 22:49:57.80,IMU,312.99,747.07,-582.52,-0.04,-0.07,0.04,-19.95,47.25,-45.90,38.3
2026/04/20 22:49:57.90,IMU,306.64,729.00,-569.34,1.47,0.96,1.25,-19.50,46.95,-46.80,38.3
2026/04/20 22:49:58.00,IMU,297.36,728.03,-583.98,1.31,-0.80,0.53,-23.70,44.85,-42.75,38.3
2026/04/20 22:49:58.10,IMU,312.99,727.54,-573.24,0.17,-0.66,-2.28,-21.15,45.75,-45.60,38.2
2026/04/20 22:49:58.20,IMU,307.62,729.00,-581.05,-0.08,0.36,-0.70,-20.55,44.40,-45.75,38.1
2026/04/20 22:49:58.30,IMU,297.36,732.42,-578.61,0.58,1.36,-1.47,-19.95,47.55,-44.85,38.1
2026/04/20 22:49:58.40,IMU,301.27,733.89,-591.80,0.53,-0.74,0.08,-20.40,44.55,-46.35,38.2
2026/04/20 22:49:58.50,IMU,302.25,737.30,-580.08,-0.75,-0.04,0.25,-19.50,43.65,-45.75,38.2
2026/04/20 22:49:58.60,IMU,306.64,736.82,-585.45,-1.54,-0.44,1.28,-20.10,45.90,-44.70,38.2
2026/04/20 22:49:58.71,IMU,305.66,740.23,-582.03,0.44,-2.55,-0.16,-19.80,46.20,-45.75,38.1
2026/04/20 22:49:58.81,IMU,309.57,749.51,-569.82,1.42,0.13,-0.31,-19.20,45.75,-47.10,38.3
2026/04/20 22:49:58.91,IMU,315.92,738.28,-566.89,0.31,0.16,-0.89,-22.50,47.25,-44.55,38.2
2026/04/20 22:49:59.01,IMU,293.46,735.35,-576.66,-0.24,0.15,-0.47,-19.20,46.80,-44.55,38.3
2026/04/20 22:49:59.11,IMU,301.76,729.00,-571.78,0.02,-0.53,0.48,-20.85,46.65,-45.00,38.4
2026/04/20 22:49:59.21,IMU,297.85,737.30,-579.10,2.21,1.37,-1.45,-20.40,46.50,-45.15,38.3
2026/04/20 22:49:59.31,IMU,300.78,729.98,-577.64,0.45,1.19,-0.59,-19.80,45.90,-46.50,38.0
2026/04/20 22:49:59.41,IMU,290.04,732.91,-596.19,1.65,-2.02,0.11,-19.65,45.30,-46.35,38.3
2026/04/20 22:49:59.51,IMU,310.55,745.61,-572.75,-0.01,1.17,2.74,-18.90,46.05,-45.90,38.0
2026/04/20 22:49:59.61,IMU,290.04,751.95,-580.57,1.18,1.14,0.45,-20.55,45.45,-44.70,38.2
2026/04/20 22:49:59.71,IMU,294.43,737.79,-572.27,0.19,-1.52,-0.34,-20.55,45.15,-45.75,38.2
2026/04/20 22:49:59.81,IMU,298.34,733.89,-576.66,-0.43,0.28,3.89,-19.95,46.80,-44.85,38.1
2026/04/20 22:49:59.92,IMU,292.97,739.75,-574.71,-0.22,-0.63,0.35,-24.45,44.10,-40.50,38.1
2026/04/20 22:50:00.02,IMU,302.73,734.38,-579.10,-0.36,2.67,-0.12,-18.75,46.20,-43.95,38.0
2026/04/20 22:50:00.12,IMU,295.90,727.05,-571.78,0.93,1.82,0.20,-21.15,46.50,-45.60,38.0
2026/04/20 22:50:00.23,IMU,296.88,750.98,-595.21,-0.16,-0.74,-2.35,-19.95,48.30,-46.35,38.0
2026/04/20 22:50:00.33,IMU,307.62,744.63,-581.54,0.78,0.08,-0.95,-19.95,46.05,-45.60,38.1
2026/04/20 22:50:00.43,IMU,296.39,738.28,-584.96,-0.11,-1.15,-0.77,-19.95,45.75,-44.55,38.3
2026/04/20 22:50:00.53,IMU,294.92,732.91,-585.45,-1.25,0.59,-0.01,-20.10,45.45,-44.70,38.1
2026/04/20 22:50:00.63,IMU,304.69,739.26,-580.08,1.05,1.68,0.61,-19.20,44.55,-46.65,38.0
2026/04/20 22:50:00.73,IMU,303.22,746.09,-567.87,0.40,-0.53,-1.29,-20.10,46.20,-43.95,38.2
2026/04/20 22:50:00.83,IMU,296.39,734.86,-576.66,-0.98,0.59,1.01,-20.70,46.50,-44.85,38.1
2026/04/20 22:50:00.94,IMU,298.83,737.79,-569.82,-0.25,0.39,-0.94,-22.95,43.80,-44.85,38.2
2026/04/20 22:50:01.04,IMU,295.41,737.79,-582.52,-1.66,1.49,2.88,-20.70,46.80,-44.85,38.1
2026/04/20 22:50:01.14,IMU,304.69,735.84,-582.52,1.14,-1.73,-1.04,-21.45,45.75,-45.15,38.1
2026/04/20 22:50:01.24,IMU,298.34,736.82,-581.05,0.91,-0.58,0.73,-20.85,44.40,-46.50,38.0
2026/04/20 22:50:01.34,IMU,312.01,731.93,-584.47,0.58,-0.30,-1.85,-19.05,46.65,-45.75,38.0
2026/04/20 22:50:01.44,IMU,304.69,738.28,-571.29,0.73,0.12,-0.48,-18.30,46.95,-45.00,38.0
2026/04/20 22:50:01.54,IMU,300.78,727.05,-582.03,0.85,1.59,1.02,-20.55,45.15,-45.00,38.2
2026/04/20 22:50:01.65,IMU,285.64,729.98,-579.59,0.48,-1.92,-1.29,-19.65,45.30,-47.40,38.0
2026/04/20 22:50:01.75,IMU,301.27,727.05,-586.43,-2.45,1.27,0.14,-20.10,45.90,-44.70,38.2
2026/04/20 22:50:01.85,IMU,305.18,745.12,-570.31,0.95,-2.76,0.95,-20.55,45.15,-46.50,37.9
2026/04/20 22:50:01.95,IMU,301.76,735.84,-574.22,0.21,-0.44,-0.06,-20.10,46.95,-45.45,38.0
2026/04/20 22:50:02.05,IMU,302.73,740.72,-575.20,0.62,-0.49,1.18,-19.95,44.85,-45.60,38.3
2026/04/20 22:50:02.15,IMU,305.66,732.91,-563.48,0.49,1.37,-0.38,-20.55,46.20,-46.20,38.3
2026/04/20 22:50:02.25,IMU,298.83,720.70,-566.89,0.76,0.69,-0.89,-19.95,46.05,-46.35,38.2
2026/04/20 22:50:02.35,IMU,301.27,741.21,-575.20,1.02,1.27,0.01,-19.80,46.20,-45.75,38.0
2026/04/20 22:50:02.45,IMU,313.48,735.35,-579.59,1.54,0.19,-1.79,-20.10,44.70,-45.75,37.9
2026/04/20 22:50:02.55,IMU,296.88,722.66,-585.45,1.11,1.77,-0.09,-18.90,46.80,-44.85,38.2
2026/04/20 22:50:02.65,IMU,301.76,716.80,-579.59,0.34,2.12,-0.08,-20.10,45.90,-45.00,38.0
2026/04/20 22:50:02.75,IMU,292.97,740.23,-565.92,-0.17,2.77,-0.17,-18.90,46.05,-44.55,38.3
2026/04/20 22:50:02.87,IMU,297.85,736.33,-581.54,-1.15,0.69,-0.32,-20.10,46.95,-46.20,38.2
2026/04/20 22:50:02.97,IMU,304.20,742.19,-580.08,0.58,0.50,-1.95,-19.65,47.55,-45.60,38.1
2026/04/20 22:50:03.07,IMU,305.66,733.89,-579.59,-0.85,0.14,-0.50,-19.05,46.20,-45.00,38.3
2026/04/20 22:50:03.17,IMU,308.11,733.89,-572.27,-0.48,0.27,-1.29,-18.15,45.30,-45.90,38.2
2026/04/20 22:50:03.27,IMU,302.73,727.54,-573.73,-0.10,0.69,-1.20,-20.10,45.90,-43.65,37.9
2026/04/20 22:50:03.37,IMU,289.06,735.35,-582.03,1.34,-0.32,-1.05,-19.80,46.20,-44.70,38.2
2026/04/20 22:50:03.47,IMU,291.50,749.02,-570.80,1.35,-0.24,-1.30,-19.65,47.25,-45.90,38.2
2026/04/20 22:50:03.57,IMU,294.92,739.26,-574.71,1.79,-0.62,0.24,-19.20,46.05,-45.60,38.0
2026/04/20 22:50:03.67,IMU,293.95,728.52,-582.52,-1.02,-0.97,-2.90,-19.20,45.75,-47.40,38.2
2026/04/20 22:50:03.78,IMU,294.92,724.12,-574.71,-1.05,2.11,-0.56,-20.85,45.15,-45.75,38.2
2026/04/20 22:50:03.88,IMU,292.97,728.52,-591.31,0.50,-1.22,-0.81,-19.95,46.80,-45.60,38.2
2026/04/20 22:50:03.98,IMU,296.88,726.56,-580.08,0.98,-0.85,-0.50,-18.45,47.55,-47.10,38.4
2026/04/20 22:50:04.08,IMU,304.20,732.91,-575.20,-1.05,-1.73,0.16,-19.95,46.50,-45.60,38.0
2026/04/20 22:50:04.18,IMU,295.41,730.47,-574.71,2.09,0.43,-1.30,-20.10,46.95,-46.50,38.3
2026/04/20 22:50:04.28,IMU,301.76,746.58,-574.71,-0.02,0.13,-0.50,-19.20,45.30,-44.85,37.9
2026/04/20 22:50:04.38,IMU,286.13,745.61,-573.73,1.62,-1.24,0.34,-21.30,46.20,-46.50,38.2
2026/04/20 22:50:04.48,IMU,310.06,734.38,-579.59,-0.99,-0.88,-0.89,-18.75,46.95,-46.50,38.2
2026/04/20 22:50:04.58,IMU,307.13,736.33,-578.61,-1.85,-1.95,1.53,-19.50,45.45,-45.00,38.2
2026/04/20 22:50:04.68,IMU,298.83,741.70,-567.38,-1.27,2.50,1.19,-19.50,48.15,-46.20,38.4
2026/04/20 22:50:04.78,IMU,305.18,753.91,-589.36,0.53,-1.63,0.63,-20.40,44.55,-46.35,38.1
2026/04/20 22:50:04.88,IMU,304.20,730.96,-575.20,-1.57,0.87,-0.08,-19.05,46.20,-46.20,38.4
2026/04/20 22:50:04.99,IMU,315.43,738.77,-571.78,0.31,0.91,-1.05,-19.65,46.05,-45.15,38.2
2026/04/20 22:50:05.09,IMU,295.90,750.49,-588.38,-0.26,1.63,-3.67,-20.55,46.65,-46.20,38.2
2026/04/20 22:50:05.19,IMU,308.59,732.91,-568.85,-2.15,-0.66,0.27,-20.10,46.95,-45.75,38.0
2026/04/20 22:50:05.29,IMU,308.11,744.14,-577.64,0.24,2.50,-2.31,-19.05,44.70,-44.70,38.0
2026/04/20 22:50:05.39,IMU,312.50,741.70,-584.96,0.43,1.18,1.82,-20.85,45.15,-45.45,38.0
2026/04/20 22:50:05.49,IMU,294.43,729.00,-586.91,-1.08,-2.18,-1.31,-18.45,44.85,-45.15,38.1
2026/04/20 22:50:05.59,IMU,302.25,730.96,-580.08,1.24,0.75,-2.53,-19.80,45.45,-45.75,38.0
2026/04/20 22:50:05.69,IMU,291.02,737.30,-585.94,-0.27,-0.59,0.18,-20.55,45.45,-46.20,38.1
2026/04/20 22:50:05.79,IMU,301.27,734.38,-584.96,1.24,0.27,2.68,-18.15,46.50,-44.10,38.2
2026/04/20 22:50:05.89,IMU,313.96,726.56,-583.98,0.05,0.91,3.05,-20.40,46.05,-46.35,37.7
2026/04/20 22:50:05.99,IMU,295.41,732.91,-579.10,0.05,-0.50,-0.22,-20.55,46.65,-46.80,38.1
2026/04/20 22:50:06.09,IMU,298.34,734.86,-600.59,-0.08,0.44,0.87,-19.65,46.80,-44.85,38.0
2026/04/20 22:50:06.20,IMU,304.69,737.30,-588.87,-0.24,1.15,1.15,-19.80,46.95,-44.70,37.9
2026/04/20 22:50:06.30,IMU,308.59,743.16,-588.87,0.67,2.50,-2.15,-20.40,45.75,-45.90,37.9
2026/04/20 22:50:06.40,IMU,296.88,734.86,-580.08,1.33,2.24,1.20,-19.80,46.65,-45.00,38.0
2026/04/20 22:50:06.50,IMU,293.95,725.10,-587.40,-0.26,1.64,-0.11,-19.95,46.80,-44.10,37.7
2026/04/20 22:50:06.60,IMU,283.69,727.05,-576.17,-0.78,0.05,0.24,-20.10,46.65,-45.45,38.0
2026/04/20 22:50:06.70,IMU,295.41,733.40,-575.20,-0.64,2.04,-0.50,-19.80,45.90,-46.20,38.4
2026/04/20 22:50:06.80,IMU,295.90,742.68,-583.50,0.21,2.47,-0.37,-19.65,46.80,-45.15,38.0
2026/04/20 22:50:06.90,IMU,305.18,729.49,-571.78,0.81,0.92,0.44,-20.40,46.80,-45.15,38.0
2026/04/20 22:50:07.00,IMU,301.27,739.26,-582.52,-0.29,1.33,-2.19,-19.20,46.50,-44.55,38.2
2026/04/20 22:50:07.10,IMU,291.50,738.77,-562.50,1.74,0.56,-0.21,-22.05,45.45,-42.45,38.0
2026/04/20 22:50:07.20,IMU,299.32,721.68,-575.20,0.57,0.45,3.19,-18.30,45.90,-46.50,38.2
2026/04/20 22:50:07.30,IMU,295.90,736.82,-580.08,0.92,0.27,1.27,-18.90,46.05,-45.60,38.3
2026/04/20 22:50:07.41,IMU,280.27,732.42,-578.61,0.21,0.01,2.01,-20.55,45.90,-46.20,38.2
2026/04/20 22:50:07.51,IMU,274.41,734.38,-577.15,-1.00,1.71,1.56,-19.20,47.25,-43.35,38.2
2026/04/20 22:50:07.61,IMU,294.92,724.61,-581.05,0.89,1.90,0.34,-19.20,46.80,-45.90,38.0
2026/04/20 22:50:07.71,IMU,308.59,742.19,-586.91,-1.35,0.29,-2.27,-19.50,46.95,-45.00,38.0
2026/04/20 22:50:07.81,IMU,299.32,739.26,-586.43,2.38,-0.82,2.39,-19.05,47.40,-44.25,38.1
2026/04/20 22:50:07.91,IMU,300.29,737.79,-581.54,0.55,-0.26,-1.01,-19.95,46.50,-45.60,37.9
2026/04/20 22:50:08.01,IMU,286.13,737.30,-585.45,-1.97,2.43,1.34,-19.50,45.90,-45.75,38.1
2026/04/20 22:50:08.11,IMU,298.83,736.82,-579.10,-0.49,-1.42,-0.68,-22.05,45.15,-41.85,38.0
2026/04/20 22:50:08.21,IMU,305.66,730.47,-589.36,0.08,-0.11,1.16,-18.75,46.20,-46.20,37.7
2026/04/20 22:50:08.31,IMU,295.41,742.68,-578.13,1.18,0.80,-1.82,-19.80,45.45,-46.50,38.0
2026/04/20 22:50:08.41,IMU,300.78,725.10,-582.03,0.37,-2.63,-0.04,-19.80,44.40,-45.75,38.0
2026/04/20 22:50:08.52,IMU,305.18,732.42,-585.45,-1.40,1.63,1.61,-19.65,46.80,-45.90,37.9
2026/04/20 22:50:08.62,IMU,291.99,739.26,-574.22,0.57,0.73,-1.26,-18.90,45.30,-45.90,38.0
2026/04/20 22:50:08.72,IMU,293.95,731.45,-570.80,-0.85,0.31,0.27,-19.65,45.30,-44.85,37.9
2026/04/20 22:50:08.82,IMU,289.06,731.45,-587.40,1.00,1.49,-2.63,-19.95,46.50,-46.65,38.0
2026/04/20 22:50:08.92,IMU,286.62,740.23,-574.22,0.40,-0.02,3.23,-18.90,47.25,-46.35,37.9
2026/04/20 22:50:09.02,IMU,305.18,735.84,-575.68,0.92,-1.40,-0.63,-19.80,46.20,-45.45,38.2
2026/04/20 22:50:09.13,IMU,292.48,729.49,-581.05,0.83,1.29,0.07,-20.10,43.95,-44.70,37.9
2026/04/20 22:50:09.23,IMU,298.83,737.79,-572.27,-1.56,-0.09,0.43,-19.95,46.05,-45.60,38.3
2026/04/20 22:50:09.34,IMU,299.80,727.54,-567.87,-0.54,1.08,0.81,-19.80,43.95,-46.80,38.1
2026/04/20 22:50:09.44,IMU,291.99,737.79,-568.36,1.37,-1.77,-1.92,-19.65,46.80,-44.85,38.2
2026/04/20 22:50:09.54,IMU,285.16,727.54,-568.36,0.86,-0.27,2.14,-20.40,46.50,-45.60,38.2
2026/04/20 22:50:09.64,IMU,294.43,747.07,-562.50,0.94,0.47,0.72,-19.95,46.50,-46.35,38.3
2026/04/20 22:50:09.74,IMU,298.83,742.19,-563.96,-0.90,0.57,1.95,-19.65,46.50,-45.60,38.4
2026/04/20 22:50:09.84,IMU,294.92,740.72,-570.80,-0.09,-0.41,2.48,-19.65,46.80,-45.60,38.1
2026/04/20 22:50:09.94,IMU,292.97,732.42,-576.66,-1.30,-0.44,-0.35,-19.20,45.75,-45.90,38.3
2026/04/20 22:50:10.04,IMU,298.83,734.38,-574.22,0.99,1.92,-1.13,-19.95,46.50,-45.15,38.2
2026/04/20 22:50:10.07,IMU,310.06,742.19,-575.20,1.10,1.58,-0.23,-19.80,46.95,-45.75,38.2
2026/04/20 22:50:10.17,IMU,288.57,734.38,-570.80,1.04,-0.42,0.31,-19.05,45.90,-45.45,38.2
2026/04/20 22:50:10.27,IMU,303.22,735.35,-554.69,0.44,-0.92,1.37,-20.55,46.95,-44.70,38.1
2026/04/20 22:50:10.37,IMU,297.36,733.40,-570.80,0.82,-0.68,-2.10,-18.75,46.95,-45.75,38.2
2026/04/20 22:50:10.47,IMU,300.29,741.21,-566.89,0.12,-1.64,-3.07,-21.30,46.95,-46.80,38.2
2026/04/20 22:50:10.57,IMU,291.99,742.19,-575.68,-0.67,0.90,3.09,-20.10,46.65,-45.00,38.4
2026/04/20 22:50:10.67,IMU,294.92,725.10,-575.68,-0.65,-0.35,-1.81,-18.75,45.45,-45.00,38.1
2026/04/20 22:50:10.77,IMU,307.13,736.82,-578.61,-1.09,-1.02,-1.59,-19.05,45.90,-46.50,38.1
2026/04/20 22:50:10.87,IMU,293.46,731.45,-579.59,0.35,-0.19,0.15,-18.90,46.80,-45.15,38.4
2026/04/20 22:50:10.98,IMU,295.41,739.75,-580.57,-0.44,0.82,-1.56,-19.80,46.20,-45.75,38.3
2026/04/20 22:50:11.08,IMU,305.66,735.35,-583.98,-1.38,1.26,-1.60,-20.55,45.90,-44.25,38.2
2026/04/20 22:50:11.18,IMU,288.57,728.52,-586.91,0.73,1.78,-0.01,-19.80,46.20,-45.45,38.2
2026/04/20 22:50:11.28,IMU,302.73,731.93,-570.31,-0.91,1.22,-1.18,-19.50,46.20,-46.50,38.5
2026/04/20 22:50:11.38,IMU,307.62,734.38,-568.36,-0.74,1.79,0.92,-19.20,45.30,-45.60,38.2
2026/04/20 22:50:11.48,IMU,294.92,728.03,-571.29,-1.08,1.06,-1.35,-20.55,45.90,-44.25,38.4
2026/04/20 22:50:11.58,IMU,293.95,723.14,-561.04,-0.14,-1.23,0.11,-19.20,46.50,-45.90,38.3
2026/04/20 22:50:11.68,IMU,279.79,738.28,-565.43,1.93,0.57,-2.01,-20.10,46.20,-46.80,38.4
2026/04/20 22:50:11.79,IMU,296.88,737.30,-560.06,2.23,1.23,0.63,-19.65,46.05,-44.85,38.2
2026/04/20 22:50:11.89,IMU,305.66,738.28,-567.87,1.18,-0.21,-0.91,-19.80,46.65,-46.50,38.4
2026/04/20 22:50:12.00,IMU,301.76,739.75,-567.38,0.61,1.76,-0.94,-19.65,48.00,-44.55,38.4
2026/04/20 22:50:12.10,IMU,295.41,728.52,-577.15,1.33,-1.15,-0.25,-20.85,46.95,-43.95,38.4
2026/04/20 22:50:12.20,IMU,290.04,756.35,-565.43,-0.78,0.50,-2.23,-19.05,48.15,-45.00,38.2
2026/04/20 22:50:12.30,IMU,296.88,744.14,-576.66,0.10,1.04,-1.89,-19.50,46.65,-45.45,38.5
2026/04/20 22:50:12.40,IMU,294.43,734.38,-574.22,0.07,1.11,-0.30,-17.40,46.50,-45.60,38.4
2026/04/20 22:50:12.50,IMU,285.16,731.93,-576.17,0.47,0.77,-0.02,-20.40,45.75,-45.15,38.4
2026/04/20 22:50:12.60,IMU,303.71,733.40,-579.10,-0.32,2.34,2.01,-21.45,45.30,-44.55,38.4
2026/04/20 22:50:12.70,IMU,293.95,736.82,-581.05,-0.27,1.57,0.97,-20.70,47.25,-45.90,38.3
2026/04/20 22:50:12.80,IMU,304.69,739.26,-573.73,-0.30,1.66,0.69,-19.05,46.20,-45.45,38.5
2026/04/20 22:50:12.90,IMU,302.25,742.19,-573.73,-0.64,2.50,-0.49,-22.05,45.90,-45.45,38.3
2026/04/20 22:50:13.00,IMU,291.02,737.30,-580.57,-1.88,-0.47,0.08,-19.95,46.50,-44.10,38.3
2026/04/20 22:50:13.10,IMU,297.85,745.12,-562.50,1.87,0.43,-0.47,-20.70,47.25,-44.10,38.3
2026/04/20 22:50:13.21,IMU,294.43,744.14,-581.54,1.37,-0.12,-2.56,-19.65,46.05,-44.85,38.3
2026/04/20 22:50:13.31,IMU,278.81,734.86,-579.10,1.42,2.19,-0.50,-20.10,45.90,-46.80,38.3
2026/04/20 22:50:13.41,IMU,303.71,733.89,-576.17,-1.70,0.32,1.01,-20.10,45.15,-46.20,38.3
2026/04/20 22:50:13.51,IMU,299.32,727.05,-578.61,0.31,1.16,-0.85,-19.95,45.75,-44.85,38.3
2026/04/20 22:50:13.61,IMU,298.34,741.70,-584.47,-0.40,-1.04,1.61,-19.95,46.05,-45.60,38.2
2026/04/20 22:50:13.71,IMU,304.20,732.91,-578.61,-1.71,-2.04,0.83,-20.85,46.95,-45.45,38.3
2026/04/20 22:50:13.81,IMU,300.29,731.45,-576.17,-1.07,-0.84,1.90,-19.20,46.50,-46.35,38.5
2026/04/20 22:50:13.91,IMU,299.32,744.63,-564.94,0.79,0.27,-3.25,-19.50,45.90,-46.50,38.2
2026/04/20 22:50:14.01,IMU,291.99,739.26,-583.50,0.36,0.64,0.57,-20.40,44.85,-45.90,38.0
2026/04/20 22:50:14.11,IMU,290.04,735.35,-572.27,1.08,0.45,-0.28,-21.30,46.95,-45.45,38.0
2026/04/20 22:50:14.21,IMU,292.48,746.58,-564.94,0.61,1.98,-0.10,-19.80,45.45,-46.50,38.2
2026/04/20 22:50:14.32,IMU,295.41,736.33,-571.29,1.10,-0.94,-1.69,-19.20,47.55,-45.60,38.3
2026/04/20 22:50:14.42,IMU,291.02,742.19,-574.22,0.66,-0.63,1.24,-18.90,46.80,-45.15,38.4
2026/04/20 22:50:14.52,IMU,280.76,738.28,-566.89,1.07,-0.37,2.39,-21.60,46.20,-45.45,38.3
2026/04/20 22:50:14.62,IMU,296.39,739.26,-580.08,-0.75,0.69,-0.73,-20.70,46.50,-45.60,38.5
2026/04/20 22:50:14.72,IMU,293.95,732.91,-576.66,-0.45,0.86,0.75,-19.65,45.30,-46.35,38.4
2026/04/20 22:50:14.82,IMU,298.34,728.03,-574.71,0.80,0.05,-1.23,-20.40,45.30,-45.15,38.2
2026/04/20 22:50:14.92,IMU,276.86,742.68,-573.24,-0.64,-0.41,-0.75,-20.55,46.20,-46.20,38.2
2026/04/20 22:50:15.02,IMU,297.85,734.38,-577.15,-0.30,-0.24,-0.73,-20.10,46.95,-46.20,38.5
2026/04/20 22:50:15.12,IMU,297.36,733.89,-577.15,0.59,0.19,0.36,-19.20,46.50,-45.15,38.4
2026/04/20 22:50:15.22,IMU,300.29,735.84,-575.68,-1.46,-0.27,-0.89,-23.85,44.70,-41.40,38.3
2026/04/20 22:50:15.32,IMU,301.27,742.68,-570.80,-0.74,-0.64,0.75,-19.20,46.80,-44.10,38.1
2026/04/20 22:50:15.42,IMU,296.39,723.63,-579.10,0.86,-1.14,2.00,-18.45,44.85,-46.35,38.4
2026/04/20 22:50:15.53,IMU,309.08,746.09,-575.68,0.89,-1.51,0.47,-19.95,45.75,-45.90,38.2
2026/04/20 22:50:15.63,IMU,285.64,742.19,-588.38,-0.72,2.46,-0.63,-19.95,47.25,-44.55,38.2
2026/04/20 22:50:15.73,IMU,303.22,729.49,-564.45,1.31,-0.01,-2.53,-21.30,45.45,-46.20,38.2
2026/04/20 22:50:15.83,IMU,292.97,736.82,-562.50,1.40,-1.24,0.13,-19.80,46.65,-45.45,38.1
2026/04/20 22:50:15.93,IMU,286.62,729.49,-568.85,-0.83,1.16,0.08,-19.50,46.20,-45.00,38.2
2026/04/20 22:50:16.03,IMU,300.29,729.98,-575.68,-0.85,0.73,0.83,-19.50,45.45,-47.25,38.2
2026/04/20 22:50:16.13,IMU,294.92,757.81,-590.82,1.01,-0.89,-2.41,-19.65,45.30,-45.90,38.1
2026/04/20 22:50:16.23,IMU,310.55,740.72,-577.15,2.95,-0.02,0.43,-20.55,46.20,-46.20,38.2
2026/04/20 22:50:16.33,IMU,306.64,740.23,-581.05,-1.32,1.12,-1.40,-19.65,45.30,-45.60,38.4
2026/04/20 22:50:16.43,IMU,294.92,740.23,-573.73,-1.35,1.38,1.10,-20.40,45.30,-45.60,38.2
2026/04/20 22:50:16.53,IMU,304.20,733.89,-564.45,-0.31,-0.80,0.98,-20.85,46.65,-46.20,38.0
2026/04/20 22:50:16.63,IMU,289.55,742.68,-576.17,-1.35,0.75,2.20,-19.50,46.65,-45.75,38.2
2026/04/20 22:50:16.74,IMU,280.76,739.75,-578.13,1.42,0.76,0.15,-19.95,46.80,-46.35,38.0
2026/04/20 22:50:16.84,IMU,299.80,735.84,-584.47,-0.99,0.88,2.76,-21.60,46.20,-45.75,38.0
2026/04/20 22:50:16.94,IMU,297.36,731.93,-586.43,-0.31,0.66,1.25,-20.40,44.85,-45.90,38.1
2026/04/20 22:50:17.04,IMU,309.08,743.16,-576.17,0.85,-0.85,0.92,-19.65,46.50,-44.55,38.5
2026/04/20 22:50:17.14,IMU,293.46,729.98,-580.08,-1.89,-0.60,-1.18,-21.15,46.50,-46.35,38.2
2026/04/20 22:50:17.24,IMU,298.34,735.35,-564.45,-1.71,-0.60,2.17,-19.80,45.45,-47.25,38.2
2026/04/20 22:50:17.34,IMU,293.46,733.40,-574.22,-0.27,1.12,0.71,-19.80,47.40,-45.00,38.4
2026/04/20 22:50:17.44,IMU,300.78,737.79,-577.15,0.44,-0.98,-1.57,-20.10,45.15,-46.20,38.3
2026/04/20 22:50:17.54,IMU,302.73,728.03,-570.80,-0.24,-0.15,1.00,-18.15,45.75,-45.15,38.3
2026/04/20 22:50:17.64,IMU,300.78,735.84,-594.24,1.15,-1.01,-2.30,-19.05,44.40,-44.70,38.1
2026/04/20 22:50:17.74,IMU,297.85,741.70,-578.61,-0.89,1.73,-1.31,-18.75,47.40,-45.45,38.0
2026/04/20 22:50:17.84,IMU,295.41,734.86,-576.66,-1.74,-0.63,-0.35,-19.50,44.70,-44.70,38.2
2026/04/20 22:50:17.96,IMU,304.20,742.68,-576.66,-0.89,-1.18,-0.87,-20.85,46.20,-46.20,38.1
2026/04/20 22:50:18.06,IMU,302.25,737.79,-586.43,1.08,1.34,0.95,-19.20,45.30,-45.60,38.3
2026/04/20 22:50:18.16,IMU,301.76,747.07,-569.82,-1.05,0.11,-0.63,-20.10,44.70,-45.45,38.2
2026/04/20 22:50:18.26,IMU,295.90,740.23,-583.98,0.52,0.62,-1.00,-19.50,45.45,-45.45,38.2
2026/04/20 22:50:18.36,IMU,302.73,744.63,-576.17,-1.95,0.66,-1.71,-18.45,46.80,-45.60,38.2
2026/04/20 22:50:18.46,IMU,313.48,722.66,-583.01,-0.40,-1.05,-0.08,-19.50,45.15,-46.80,38.2
2026/04/20 22:50:18.56,IMU,297.36,740.72,-568.85,-0.92,0.65,-2.08,-19.80,44.70,-46.80,38.2
2026/04/20 22:50:18.66,IMU,306.15,744.63,-564.94,1.60,-2.85,-0.88,-21.30,46.20,-45.45,38.0
2026/04/20 22:50:18.76,IMU,298.83,749.51,-576.17,0.24,0.02,-1.26,-19.95,46.50,-43.80,38.0
2026/04/20 22:50:18.86,IMU,296.39,735.84,-580.57,-0.21,0.05,-0.34,-19.20,46.05,-44.85,38.2
2026/04/20 22:50:18.96,IMU,304.69,742.19,-557.13,-0.50,2.03,-2.11,-21.30,47.70,-45.00,38.2
2026/04/20 22:50:19.07,IMU,299.32,729.00,-568.85,-0.05,-1.57,0.10,-19.05,45.45,-45.00,38.2
2026/04/20 22:50:19.17,IMU,292.48,734.38,-580.57,-1.27,2.45,-0.81,-20.40,45.75,-44.85,38.4
2026/04/20 22:50:19.27,IMU,295.41,737.30,-569.34,-0.27,1.46,1.15,-19.95,46.50,-45.90,38.5
2026/04/20 22:50:19.37,IMU,300.78,742.68,-575.68,-1.08,1.60,-1.29,-20.70,44.55,-46.65,38.0
2026/04/20 22:50:19.47,IMU,293.46,740.72,-577.64,-0.57,0.73,-0.87,-19.95,46.05,-45.60,38.0
2026/04/20 22:50:19.57,IMU,308.11,729.98,-584.47,1.79,-0.60,2.70,-19.20,45.30,-45.90,38.0
2026/04/20 22:50:19.67,IMU,316.41,733.40,-587.40,-0.85,0.62,0.18,-20.70,46.50,-46.35,38.0
2026/04/20 22:50:19.77,IMU,296.88,749.51,-580.08,-0.57,0.15,-3.76,-19.80,45.15,-46.80,38.1
2026/04/20 22:50:19.87,IMU,283.20,747.56,-586.43,-0.07,-0.12,0.79,-20.10,45.45,-46.50,38.0
2026/04/20 22:50:19.97,IMU,301.27,735.35,-566.89,-0.14,0.77,-1.95,-19.20,46.50,-44.85,38.2
2026/04/20 22:50:20.07,IMU,292.48,732.91,-573.73,-0.07,-0.52,2.27,-19.80,47.40,-44.70,38.1
2026/04/20 22:50:20.17,IMU,296.39,738.28,-579.10,0.66,0.07,-0.49,-19.20,46.05,-46.35,38.0
2026/04/20 22:50:20.28,IMU,299.80,730.96,-586.91,0.47,1.21,1.24,-21.30,45.15,-45.75,38.0
2026/04/20 22:50:20.38,IMU,294.92,730.96,-562.01,-1.62,0.05,2.44,-19.20,47.25,-45.15,37.9
2026/04/20 22:50:20.48,IMU,303.71,731.45,-572.27,0.12,0.82,0.52,-19.80,46.95,-44.25,38.2
2026/04/20 22:50:20.58,IMU,302.73,748.54,-565.43,0.85,0.68,1.78,-20.70,46.05,-46.35,38.0
2026/04/20 22:50:20.68,IMU,300.29,732.42,-569.34,1.24,-1.23,2.56,-19.50,46.65,-46.20,38.2
2026/04/20 22:50:20.78,IMU,295.90,743.65,-565.92,-1.39,0.18,0.19,-21.15,44.55,-44.85,38.1
2026/04/20 22:50:20.88,IMU,299.32,729.98,-561.52,0.65,-0.73,-0.47,-18.75,45.45,-46.50,38.3
2026/04/20 22:50:20.98,IMU,295.41,727.54,-565.92,0.97,0.08,-0.89,-20.40,46.50,-46.35,38.2
2026/04/20 22:50:21.08,IMU,303.22,727.54,-564.45,-0.20,0.54,-1.34,-19.05,45.90,-45.45,38.2
2026/04/20 22:50:21.18,IMU,300.78,735.84,-573.24,0.88,1.35,-2.08,-19.65,46.50,-44.55,38.0
2026/04/20 22:50:21.28,IMU,305.66,742.19,-565.43,-0.33,0.70,2.66,-19.50,45.15,-46.20,38.2
2026/04/20 22:50:21.38,IMU,306.64,737.30,-565.43,-0.16,0.81,3.35,-20.40,46.50,-45.60,38.2
2026/04/20 22:50:21.49,IMU,306.15,739.75,-564.45,0.09,-0.27,2.10,-18.45,46.80,-44.85,38.3
2026/04/20 22:50:21.59,IMU,303.22,743.16,-565.92,2.00,1.14,-0.88,-19.65,47.25,-45.15,38.2
2026/04/20 22:50:21.69,IMU,297.85,736.82,-571.78,1.96,-0.53,1.03,-19.05,45.90,-46.20,38.3
2026/04/20 22:50:21.79,IMU,300.78,733.40,-578.61,2.21,-1.57,-2.50,-19.50,45.15,-45.00,38.2
2026/04/20 22:50:21.89,IMU,305.66,738.77,-565.92,-0.31,1.74,-1.06,-19.80,44.70,-44.70,38.2
2026/04/20 22:50:21.99,IMU,289.06,726.56,-559.08,0.97,0.79,-2.56,-19.05,45.15,-46.80,38.3
2026/04/20 22:50:22.09,IMU,299.32,743.65,-564.94,-1.41,1.92,-0.45,-19.80,45.90,-45.45,38.4
2026/04/20 22:50:22.19,IMU,298.34,733.89,-562.99,0.83,-0.24,3.02,-18.15,46.05,-43.80,38.3
2026/04/20 22:50:22.29,IMU,302.73,742.68,-563.96,0.39,0.47,2.37,-19.20,46.50,-44.85,38.2
2026/04/20 22:50:22.39,IMU,296.88,734.86,-566.89,-0.15,-0.27,0.69,-19.50,46.20,-44.25,38.2
2026/04/20 22:50:22.49,IMU,291.50,745.12,-573.24,-1.50,0.02,1.15,-20.85,45.45,-45.45,38.2
2026/04/20 22:50:22.59,IMU,300.29,741.21,-568.36,0.26,0.63,-0.54,-18.00,46.65,-47.25,38.4
2026/04/20 22:50:22.70,IMU,296.39,750.49,-582.52,-1.25,0.40,2.33,-19.80,45.45,-44.25,38.0
2026/04/20 22:50:22.80,IMU,277.34,732.42,-576.17,-1.02,0.85,-0.40,-19.65,46.05,-44.55,38.4
2026/04/20 22:50:22.90,IMU,301.27,729.00,-565.92,-0.92,0.95,3.94,-19.95,46.05,-44.85,38.4
2026/04/20 22:50:23.00,IMU,291.02,747.07,-584.47,-0.48,0.79,-0.40,-21.15,45.75,-45.60,38.2
2026/04/20 22:50:23.10,IMU,295.41,746.09,-568.85,0.03,1.96,1.19,-20.10,46.20,-45.00,38.2
2026/04/20 22:50:23.20,IMU,301.27,745.12,-568.36,-0.66,2.88,-2.98,-20.70,44.55,-44.55,38.2
2026/04/20 22:50:23.30,IMU,300.78,745.12,-551.27,-0.66,0.36,0.38,-19.95,47.25,-45.15,37.9
2026/04/20 22:50:23.40,IMU,294.92,737.79,-583.01,-0.44,2.23,1.07,-23.10,44.40,-40.65,38.2
2026/04/20 22:50:23.50,IMU,297.85,735.84,-569.82,0.63,0.80,0.64,-19.65,46.80,-46.35,38.2
2026/04/20 22:50:23.60,IMU,302.73,750.00,-564.45,-0.62,0.99,-0.11,-19.95,45.75,-45.15,38.2
2026/04/20 22:50:23.70,IMU,299.80,742.68,-583.98,-0.42,2.50,-0.92,-19.65,45.30,-44.10,38.4
2026/04/20 22:50:23.80,IMU,303.22,739.75,-575.68,-0.50,-0.56,-0.87,-19.80,47.40,-44.25,38.0
2026/04/20 22:50:23.91,IMU,304.20,729.49,-571.78,1.09,1.47,-0.57,-23.10,45.45,-41.40,38.0
2026/04/20 22:50:24.01,IMU,296.88,748.54,-583.98,-2.45,-0.02,1.50,-18.90,46.05,-47.10,37.9
2026/04/20 22:50:24.11,IMU,297.85,739.75,-574.71,2.36,0.10,1.42,-19.80,45.90,-44.70,38.2
2026/04/20 22:50:24.21,IMU,302.73,740.72,-575.68,-0.04,3.37,-0.18,-20.10,46.95,-45.45,38.1
2026/04/20 22:50:24.31,IMU,301.76,727.54,-578.13,0.71,0.99,-0.33,-20.10,47.70,-47.25,37.8
2026/04/20 22:50:24.42,IMU,296.39,741.21,-582.52,-1.41,1.73,0.50,-23.85,45.15,-41.85,37.9
2026/04/20 22:50:24.52,IMU,307.62,728.52,-583.50,0.85,1.91,-0.73,-20.40,46.05,-47.40,38.0
2026/04/20 22:50:24.62,IMU,289.06,732.42,-574.22,0.35,-1.32,1.05,-19.95,46.05,-44.85,38.2
2026/04/20 22:50:24.73,IMU,288.09,733.89,-573.24,-1.16,-0.55,-0.23,-20.40,45.75,-45.90,38.1
2026/04/20 22:50:24.83,IMU,306.64,736.33,-589.84,1.32,-0.34,-1.15,-21.45,45.75,-45.15,38.2
2026/04/20 22:50:24.93,IMU,310.06,753.42,-578.13,1.32,-0.75,-1.03,-20.70,46.50,-45.15,38.0
2026/04/20 22:50:25.03,IMU,296.39,744.14,-581.05,-0.53,-0.21,-0.09,-18.75,45.45,-45.75,38.0
2026/04/20 22:50:25.13,IMU,298.83,749.51,-575.68,0.98,1.49,0.04,-19.05,46.65,-45.45,37.9
2026/04/20 22:50:25.23,IMU,310.55,738.28,-580.57,1.20,0.67,0.01,-20.40,45.75,-45.60,37.9
2026/04/20 22:50:25.33,IMU,313.48,749.02,-586.43,1.37,-3.19,0.46,-20.10,44.70,-45.00,38.0
2026/04/20 22:50:25.43,IMU,303.22,733.89,-579.10,0.81,0.58,-0.54,-19.50,45.45,-46.50,37.9
2026/04/20 22:50:25.53,IMU,302.25,736.33,-568.36,-0.19,1.26,0.41,-18.90,46.05,-45.60,38.0
2026/04/20 22:50:25.63,IMU,297.36,729.49,-577.64,1.39,1.79,-2.63,-20.70,45.30,-45.90,37.9
2026/04/20 22:50:25.73,IMU,306.15,743.16,-573.73,0.43,0.85,1.37,-19.50,46.65,-44.70,37.9
2026/04/20 22:50:25.83,IMU,297.85,742.68,-591.31,-0.80,-0.47,2.23,-19.50,47.70,-44.70,37.9
2026/04/20 22:50:25.94,IMU,299.80,738.28,-566.41,-0.60,-0.48,1.02,-19.50,45.45,-45.75,38.0
2026/04/20 22:50:26.04,IMU,297.36,735.35,-575.20,-2.61,1.98,0.81,-18.45,45.30,-45.90,38.0
2026/04/20 22:50:26.14,IMU,298.34,742.68,-574.71,-0.47,3.22,-1.51,-19.65,47.55,-44.85,37.9
2026/04/20 22:50:26.24,IMU,305.18,744.63,-585.94,-0.12,0.91,-1.30,-19.95,45.30,-44.10,37.9
2026/04/20 22:50:26.34,IMU,289.55,742.68,-577.64,1.15,0.05,-1.60,-20.70,47.55,-45.60,37.9
2026/04/20 22:50:26.44,IMU,291.02,732.91,-587.40,1.29,-0.44,1.18,-21.45,47.25,-45.60,38.1
2026/04/20 22:50:26.54,IMU,299.32,734.38,-582.03,-0.34,-0.08,1.24,-19.20,43.80,-45.60,38.0
2026/04/20 22:50:26.64,IMU,297.36,738.77,-578.61,-0.83,2.04,2.98,-19.95,45.75,-46.65,38.0
2026/04/20 22:50:26.74,IMU,291.50,729.49,-572.27,-0.92,0.87,-0.18,-19.65,45.75,-44.55,38.0
2026/04/20 22:50:26.84,IMU,296.39,742.19,-573.24,-0.27,1.95,-0.71,-20.55,46.65,-43.95,38.1
2026/04/20 22:50:26.96,IMU,310.55,732.91,-568.36,-1.27,0.71,-1.05,-19.20,45.75,-44.10,37.9
2026/04/20 22:50:27.06,IMU,297.36,716.31,-577.15,0.63,-0.81,1.60,-19.20,45.75,-45.15,37.9
2026/04/20 22:50:27.16,IMU,287.60,747.56,-569.34,0.31,-1.83,-0.04,-19.20,45.75,-45.90,37.9
2026/04/20 22:50:27.26,IMU,299.80,728.52,-564.94,-0.87,-1.18,0.37,-18.90,46.05,-46.65,37.9
2026/04/20 22:50:27.36,IMU,302.73,740.23,-576.17,1.50,-0.23,-2.25,-20.85,46.65,-45.75,37.9
2026/04/20 22:50:27.46,IMU,290.04,742.19,-573.24,0.80,-1.55,-2.23,-18.90,46.50,-44.85,38.0
2026/04/20 22:50:27.56,IMU,297.36,749.51,-579.10,0.96,-2.12,0.82,-18.00,46.20,-46.50,38.0
2026/04/20 22:50:27.66,IMU,315.43,747.56,-584.47,-1.37,-2.81,0.34,-20.70,46.05,-44.85,37.9
2026/04/20 22:50:27.76,IMU,300.29,747.07,-576.66,0.90,0.05,-1.12,-22.05,44.40,-46.20,37.8
2026/04/20 22:50:27.86,IMU,298.34,737.79,-580.08,-0.25,-0.69,2.34,-20.55,45.90,-44.25,38.1
2026/04/20 22:50:27.96,IMU,299.32,729.00,-578.61,-0.68,-2.64,2.19,-20.85,46.95,-47.25,38.0
2026/04/20 22:50:28.07,IMU,300.29,730.47,-575.20,1.56,-1.46,-2.22,-19.65,46.80,-44.85,37.9
2026/04/20 22:50:28.17,IMU,297.36,734.86,-556.64,-0.23,0.59,-2.05,-19.20,46.80,-45.90,38.2
2026/04/20 22:50:28.27,IMU,291.50,748.05,-565.92,1.49,1.25,2.52,-20.10,47.40,-45.75,38.1
2026/04/20 22:50:28.37,IMU,301.27,747.56,-565.92,-0.07,1.23,-1.63,-20.10,46.20,-45.75,38.2
2026/04/20 22:50:28.47,IMU,305.66,729.98,-571.78,0.08,0.35,0.28,-19.20,46.50,-46.65,38.0
2026/04/20 22:50:28.57,IMU,293.46,736.82,-559.08,-0.32,0.30,0.40,-19.95,46.80,-47.40,38.2
2026/04/20 22:50:28.67,IMU,293.95,737.79,-569.34,-0.23,-0.11,0.99,-17.70,46.50,-46.35,38.2
2026/04/20 22:50:28.77,IMU,299.32,723.14,-572.27,-0.66,-0.76,1.68,-18.75,47.40,-44.70,38.1
2026/04/20 22:50:28.87,IMU,293.46,735.84,-566.89,-0.98,2.06,0.88,-19.95,45.30,-45.90,38.3
2026/04/20 22:50:28.97,IMU,297.85,736.33,-565.92,2.38,-0.37,-1.18,-19.50,46.95,-45.00,38.4
2026/04/20 22:50:29.07,IMU,284.67,738.28,-558.11,1.10,1.32,0.54,-19.95,46.05,-44.10,37.9
2026/04/20 22:50:29.17,IMU,304.69,728.03,-549.80,-1.91,-0.10,0.41,-19.80,45.45,-46.20,38.1
2026/04/20 22:50:29.28,IMU,297.85,740.23,-574.71,1.08,0.15,-0.83,-18.90,44.85,-44.55,38.2
2026/04/20 22:50:29.38,IMU,297.36,732.91,-557.62,-0.23,0.15,-1.88,-18.30,46.20,-44.25,38.2
2026/04/20 22:50:29.48,IMU,286.13,741.70,-577.64,1.30,0.33,1.06,-20.10,47.40,-44.25,38.1
2026/04/20 22:50:29.58,IMU,291.02,742.68,-571.78,0.20,1.50,2.21,-21.15,45.75,-45.15,38.2
2026/04/20 22:50:29.68,IMU,296.88,745.61,-555.66,0.00,0.24,1.27,-19.50,48.15,-46.80,38.4
2026/04/20 22:50:29.78,IMU,290.53,734.86,-570.31,-0.22,0.85,-2.58,-20.10,46.20,-45.75,38.4
2026/04/20 22:50:29.88,IMU,300.29,737.30,-574.22,-0.92,0.64,0.71,-19.65,46.05,-45.60,38.1
2026/04/20 22:50:29.98,IMU,291.02,741.70,-575.20,-0.27,-0.93,1.53,-20.10,45.45,-46.20,38.0
2026/04/20 22:50:30.08,IMU,287.60,745.12,-575.20,0.70,-0.16,1.39,-19.20,45.75,-46.35,38.3
2026/04/20 22:50:30.18,IMU,307.62,734.38,-560.55,-0.63,-2.25,-0.03,-19.20,46.50,-46.35,38.2
2026/04/20 22:50:30.28,IMU,297.36,743.65,-566.89,0.27,-0.12,-0.48,-19.80,47.70,-45.45,38.4
2026/04/20 22:50:30.38,IMU,296.39,746.09,-562.50,-1.81,-0.52,1.17,-20.70,46.50,-44.85,38.3
2026/04/20 22:50:30.49,IMU,298.83,739.75,-578.13,0.39,0.29,0.01,-21.30,45.90,-45.00,38.0
2026/04/20 22:50:30.59,IMU,293.95,737.30,-547.85,0.50,0.95,-1.41,-22.80,44.40,-41.40,38.3
2026/04/20 22:50:30.69,IMU,291.02,734.86,-570.31,-0.63,-2.27,-1.57,-21.45,45.75,-45.60,38.3
2026/04/20 22:50:30.79,IMU,290.04,737.79,-570.80,1.10,1.04,1.13,-19.65,46.50,-45.60,38.3
2026/04/20 22:50:30.89,IMU,301.27,742.19,-578.61,1.15,-0.67,-0.75,-19.80,46.20,-46.50,38.2
2026/04/20 22:50:30.99,IMU,300.78,728.03,-570.80,-2.48,0.16,0.28,-19.65,46.50,-46.35,38.4
2026/04/20 22:50:31.09,IMU,292.97,737.30,-563.96,-0.76,-0.26,0.39,-19.95,45.30,-46.65,38.3
2026/04/20 22:50:31.19,IMU,303.71,742.19,-578.13,0.12,0.78,-1.76,-20.10,46.20,-45.00,38.4
2026/04/20 22:50:31.29,IMU,309.57,743.65,-568.85,1.17,-0.38,-1.55,-20.55,46.95,-45.00,38.1
2026/04/20 22:50:31.39,IMU,294.43,742.68,-567.38,-1.89,2.10,-0.60,-18.75,45.90,-44.25,38.2
2026/04/20 22:50:31.49,IMU,293.95,748.05,-566.41,-1.63,0.38,0.63,-19.50,45.90,-45.00,38.2
2026/04/20 22:50:31.59,IMU,303.22,738.77,-572.75,1.34,-0.85,-0.32,-20.55,45.45,-44.70,38.2
2026/04/20 22:50:31.69,IMU,297.36,729.49,-582.03,-1.85,0.27,-2.39,-20.55,45.45,-45.00,38.3
2026/04/20 22:50:31.80,IMU,304.69,730.96,-564.45,0.65,0.89,0.73,-18.90,45.75,-44.85,38.3
2026/04/20 22:50:31.90,IMU,295.90,738.77,-562.99,0.61,-1.03,1.32,-20.10,45.90,-45.75,38.3
2026/04/20 22:50:32.00,IMU,295.41,737.79,-563.96,-0.16,2.59,-1.66,-18.45,46.05,-45.15,38.1
2026/04/20 22:50:32.10,IMU,302.25,733.40,-573.73,1.10,-0.41,-0.44,-19.65,45.75,-45.60,38.4
2026/04/20 22:50:32.20,IMU,291.02,741.21,-565.92,-0.50,-0.11,1.36,-19.95,46.05,-45.15,38.2
2026/04/20 22:50:32.30,IMU,306.64,738.28,-561.04,-0.92,-2.10,0.67,-19.80,46.65,-47.55,38.2
2026/04/20 22:50:32.40,IMU,292.48,731.93,-565.43,1.50,0.91,-2.02,-20.55,45.45,-45.45,38.5
2026/04/20 22:50:32.50,IMU,302.25,733.89,-569.34,-0.47,0.37,0.64,-19.95,45.75,-44.10,38.4
2026/04/20 22:50:32.62,IMU,295.90,737.79,-566.89,-0.74,-1.61,-0.59,-23.70,44.85,-39.45,38.5
2026/04/20 22:50:32.72,IMU,285.16,742.19,-567.87,-0.47,-1.20,-0.15,-19.65,47.55,-44.85,38.4
2026/04/20 22:50:32.82,IMU,276.37,746.58,-574.22,0.85,0.41,-3.42,-22.05,46.95,-45.45,38.7
2026/04/20 22:50:32.92,IMU,293.95,742.19,-570.80,-0.53,1.69,-1.38,-20.55,46.20,-45.45,38.2
2026/04/20 22:50:33.02,IMU,285.64,738.28,-556.15,0.24,-0.11,-0.46,-20.55,45.45,-45.45,38.0
2026/04/20 22:50:33.12,IMU,299.32,726.07,-572.27,1.53,-0.39,0.44,-20.55,45.90,-44.70,38.3
2026/04/20 22:50:33.22,IMU,297.85,745.61,-571.78,2.66,-0.11,1.10,-21.45,46.05,-45.60,38.4
2026/04/20 22:50:33.32,IMU,305.66,737.30,-571.78,0.02,-0.60,0.19,-18.90,46.05,-45.90,38.4
2026/04/20 22:50:33.42,IMU,303.71,741.21,-580.57,0.11,1.93,-2.71,-19.80,46.20,-45.00,38.2
2026/04/20 22:50:33.52,IMU,300.29,729.00,-563.96,0.94,-0.13,2.59,-19.50,46.20,-45.75,38.4
2026/04/20 22:50:33.62,IMU,299.80,737.79,-562.99,0.20,-0.45,0.63,-20.55,44.70,-44.25,38.1
2026/04/20 22:50:33.72,IMU,289.55,731.93,-569.82,-0.28,0.61,-1.80,-19.95,45.75,-46.65,38.3
2026/04/20 22:50:33.82,IMU,299.80,732.91,-569.34,0.74,-0.83,2.37,-19.80,46.20,-42.45,38.2
2026/04/20 22:50:33.92,IMU,306.64,740.72,-578.13,1.18,0.21,0.34,-20.40,45.75,-44.85,38.0
2026/04/20 22:50:34.03,IMU,303.71,737.30,-576.66,-1.37,2.18,3.44,-20.10,46.65,-45.00,38.1
2026/04/20 22:50:34.13,IMU,296.88,739.75,-578.61,-0.32,-0.37,-0.81,-19.80,46.95,-46.20,38.2
2026/04/20 22:50:34.23,IMU,294.43,735.35,-569.82,1.22,0.61,0.35,-20.10,44.70,-46.20,38.0
2026/04/20 22:50:34.33,IMU,297.85,741.70,-570.31,-0.09,2.15,0.02,-19.95,47.55,-45.15,38.0
2026/04/20 22:50:34.43,IMU,282.71,733.40,-571.29,-0.73,-0.81,0.91,-20.55,45.15,-43.95,38.3
2026/04/20 22:50:34.53,IMU,302.73,744.63,-571.78,-1.69,-1.17,-2.21,-20.55,47.40,-46.80,38.3
2026/04/20 22:50:34.63,IMU,297.85,730.96,-562.99,0.20,-0.51,3.56,-18.15,45.30,-45.15,38.2
2026/04/20 22:50:34.73,IMU,291.99,742.19,-574.22,-0.81,0.24,-0.04,-19.50,46.20,-45.00,38.2
2026/04/20 22:50:34.83,IMU,296.88,743.65,-567.87,-1.34,0.31,0.41,-19.95,45.75,-45.90,38.3
2026/04/20 22:50:34.93,IMU,297.85,751.95,-576.66,1.82,0.44,0.65,-24.90,44.70,-42.15,38.0
2026/04/20 22:50:35.03,IMU,294.43,729.98,-581.05,1.36,1.15,-0.59,-19.95,46.05,-44.55,37.9
2026/04/20 22:50:35.13,IMU,303.22,731.45,-579.10,0.03,-0.93,-0.17,-20.10,45.45,-46.20,38.2
2026/04/20 22:50:35.24,IMU,291.02,742.19,-577.15,-0.23,1.47,-1.36,-20.85,45.45,-46.20,38.3
2026/04/20 22:50:35.34,IMU,291.02,750.49,-574.71,-1.86,-0.92,1.37,-19.65,47.25,-45.60,38.0
2026/04/20 22:50:35.44,IMU,296.88,744.63,-576.66,-1.23,-1.38,1.83,-18.90,46.05,-45.15,38.0
2026/04/20 22:50:35.54,IMU,296.88,732.42,-568.36,-0.01,3.20,0.56,-19.80,46.95,-45.00,38.0
2026/04/20 22:50:35.64,IMU,298.83,726.07,-578.13,1.21,0.78,-0.93,-20.85,44.70,-45.00,37.9
2026/04/20 22:50:35.74,IMU,304.20,736.33,-569.82,-1.16,-2.01,1.66,-18.75,44.70,-46.50,37.9
2026/04/20 22:50:35.84,IMU,296.88,734.38,-570.31,-0.96,-0.76,-2.30,-19.80,44.70,-44.70,38.0
2026/04/20 22:50:35.94,IMU,297.36,742.19,-569.34,-0.21,3.90,-0.05,-20.55,45.90,-43.65,38.0
2026/04/20 22:50:36.04,IMU,281.25,737.30,-577.15,-0.39,0.51,1.91,-19.20,46.05,-45.15,37.9
2026/04/20 22:50:36.14,IMU,303.71,737.30,-586.91,-0.02,1.15,0.31,-20.55,46.20,-44.25,38.0
2026/04/20 22:50:36.24,IMU,306.64,743.16,-572.27,0.86,-0.11,-0.61,-19.65,46.80,-46.35,37.9
2026/04/20 22:50:36.34,IMU,285.16,744.63,-584.96,1.84,0.31,-0.66,-19.95,46.80,-45.90,38.0
2026/04/20 22:50:36.45,IMU,308.11,732.91,-577.64,-0.60,0.99,0.63,-20.40,47.55,-44.55,38.0
2026/04/20 22:50:36.55,IMU,302.25,734.86,-580.08,0.25,1.39,-0.15,-18.00,46.95,-46.50,37.7
2026/04/20 22:50:36.65,IMU,292.97,736.33,-573.24,0.48,-1.37,-1.84,-20.40,44.85,-44.85,37.7
2026/04/20 22:50:36.75,IMU,301.27,736.82,-590.33,2.69,-2.13,1.18,-18.90,46.80,-44.85,37.9
2026/04/20 22:50:36.85,IMU,292.97,733.89,-585.45,0.24,1.12,0.18,-19.05,45.45,-45.00,37.9
2026/04/20 22:50:36.96,IMU,301.27,733.89,-564.94,0.27,0.31,0.08,-19.20,46.50,-44.10,37.8
2026/04/20 22:50:37.06,IMU,299.32,742.68,-577.64,-1.40,0.09,-1.47,-18.90,46.05,-46.35,37.9
2026/04/20 22:50:37.16,IMU,305.66,741.70,-571.29,0.55,-0.65,1.27,-19.80,45.45,-45.45,37.9
2026/04/20 22:50:37.26,IMU,293.46,737.79,-564.45,0.24,0.90,1.16,-20.40,46.05,-45.60,37.7
2026/04/20 22:50:37.36,IMU,296.88,742.19,-578.61,-0.71,1.78,-0.15,-18.75,45.90,-45.00,37.9
2026/04/20 22:50:37.46,IMU,298.34,733.40,-583.01,0.59,-0.37,0.83,-19.05,47.40,-45.45,37.7
2026/04/20 22:50:37.56,IMU,309.57,727.54,-586.91,-0.42,1.36,-1.82,-21.30,46.20,-45.75,37.5
2026/04/20 22:50:37.66,IMU,293.46,745.12,-575.68,-0.45,-1.60,-0.82,-18.75,45.45,-46.50,37.6
2026/04/20 22:50:37.76,IMU,304.20,734.38,-579.10,-1.06,0.50,1.11,-20.85,45.90,-43.95,37.7
2026/04/20 22:50:37.86,IMU,297.85,748.05,-597.17,0.23,-0.42,-0.63,-19.50,47.70,-43.95,37.5
2026/04/20 22:50:37.96,IMU,304.69,746.58,-575.68,1.80,-1.02,0.68,-19.95,45.75,-46.35,37.3
2026/04/20 22:50:38.07,IMU,284.18,739.26,-585.45,-1.55,0.10,0.32,-19.05,46.20,-45.00,37.7
2026/04/20 22:50:38.17,IMU,301.76,741.21,-586.91,-1.03,1.98,0.50,-19.80,45.90,-46.20,37.6
2026/04/20 22:50:38.27,IMU,307.13,753.91,-583.98,-0.15,0.82,-1.91,-20.10,45.45,-45.75,37.4
2026/04/20 22:50:38.37,IMU,293.46,736.82,-581.05,1.76,1.04,1.11,-19.95,46.80,-47.10,37.7
2026/04/20 22:50:38.47,IMU,297.85,733.40,-582.03,-1.05,0.18,3.51,-20.70,46.05,-45.90,37.4
2026/04/20 22:50:38.57,IMU,301.76,742.68,-579.59,-0.83,1.09,1.58,-19.20,46.80,-45.60,37.1
2026/04/20 22:50:38.67,IMU,302.25,745.61,-579.10,0.59,0.89,3.48,-19.65,46.50,-46.65,37.5
2026/04/20 22:50:38.77,IMU,312.99,732.91,-578.61,-2.03,-0.85,-0.57,-23.25,45.30,-42.00,37.5
2026/04/20 22:50:38.87,IMU,295.90,743.16,-591.80,-1.00,1.12,0.49,-19.80,46.20,-45.00,37.2
2026/04/20 22:50:38.97,IMU,305.18,744.14,-583.98,1.24,-0.28,0.40,-20.70,44.85,-45.15,37.4
2026/04/20 22:50:39.07,IMU,299.32,747.56,-580.57,0.90,-2.03,0.99,-19.80,44.70,-44.70,37.5
2026/04/20 22:50:39.17,IMU,300.29,741.70,-586.43,0.15,1.25,-0.72,-19.80,46.20,-45.00,37.3
2026/04/20 22:50:39.28,IMU,303.71,738.77,-581.54,0.53,0.21,-1.18,-19.65,46.05,-45.15,37.1
2026/04/20 22:50:39.38,IMU,301.27,766.11,-588.87,0.23,-4.43,-2.01,-20.70,47.55,-45.15,37.3
2026/04/20 22:50:39.48,IMU,300.78,732.91,-583.01,0.65,0.80,-0.49,-20.85,45.90,-43.95,37.6
2026/04/20 22:50:39.58,IMU,304.20,730.47,-578.61,-0.15,-0.55,-2.85,-21.30,45.15,-46.50,37.0
2026/04/20 22:50:39.68,IMU,297.85,743.16,-572.75,-0.04,0.44,-2.16,-19.50,46.20,-43.65,37.5
2026/04/20 22:50:39.79,IMU,296.39,744.63,-576.17,-0.35,-1.70,1.08,-23.55,42.45,-41.40,37.3
2026/04/20 22:50:39.89,IMU,305.66,730.96,-588.38,-0.44,1.31,-1.70,-19.80,45.90,-45.45,37.4
2026/04/20 22:50:39.99,IMU,299.32,748.54,-575.20,1.00,-0.58,0.26,-19.65,46.05,-45.90,37.2
2026/04/20 22:50:40.09,IMU,302.73,739.75,-586.43,0.71,1.55,-0.44,-20.55,46.95,-45.75,37.2
2026/04/20 22:50:40.19,IMU,308.59,745.12,-588.38,-0.01,0.49,-0.39,-19.95,47.55,-44.85,37.4
2026/04/20 22:50:40.29,IMU,307.13,732.42,-577.64,-0.83,-0.21,-1.17,-20.70,45.75,-45.15,37.0
2026/04/20 22:50:40.39,IMU,297.36,726.56,-591.31,0.11,-0.78,-3.15,-17.70,46.80,-45.15,37.2
2026/04/20 22:50:40.49,IMU,306.15,746.58,-586.91,2.17,0.70,-1.34,-19.65,46.05,-45.15,37.1
2026/04/20 22:50:40.59,IMU,309.08,728.03,-592.29,-0.28,0.73,-1.40,-18.90,45.30,-45.60,37.1
2026/04/20 22:50:40.69,IMU,293.46,746.58,-583.50,0.95,-1.24,-1.01,-19.05,45.45,-46.50,37.4
2026/04/20 22:50:40.79,IMU,306.15,738.28,-586.43,1.34,0.05,0.85,-20.55,45.45,-45.00,37.3
2026/04/20 22:50:40.89,IMU,299.32,729.00,-583.01,-0.79,0.92,1.95,-20.85,47.70,-45.75,37.2
2026/04/20 22:50:41.00,IMU,304.69,735.84,-576.17,-1.50,-1.12,0.79,-20.10,46.95,-47.55,37.3
2026/04/20 22:50:41.10,IMU,290.04,738.28,-578.61,-1.18,1.07,0.11,-20.10,46.65,-44.25,36.9
2026/04/20 22:50:41.20,IMU,295.41,735.84,-576.66,0.76,-1.38,0.17,-19.80,48.15,-46.20,37.5
2026/04/20 22:50:41.30,IMU,299.80,736.33,-593.26,-0.49,-1.12,0.45,-20.40,46.80,-45.90,36.9
2026/04/20 22:50:41.40,IMU,307.13,754.88,-584.96,1.53,1.10,-1.00,-19.80,45.15,-44.70,37.2
2026/04/20 22:50:41.50,IMU,314.45,742.68,-580.08,-1.35,2.02,2.14,-20.55,46.65,-46.20,37.2
2026/04/20 22:50:41.60,IMU,308.11,727.05,-590.33,-0.37,0.54,-1.13,-20.55,47.40,-46.20,37.0
2026/04/20 22:50:41.70,IMU,312.50,747.56,-574.71,1.27,-1.19,0.36,-20.40,45.30,-45.90,36.9
2026/04/20 22:50:41.80,IMU,295.41,745.12,-582.03,4.08,0.62,-0.41,-19.20,46.50,-44.10,37.2
2026/04/20 22:50:41.90,IMU,312.01,751.46,-577.15,-0.89,0.85,-2.02,-20.55,46.95,-44.70,37.3
2026/04/20 22:50:42.00,IMU,296.39,739.75,-582.52,0.47,-1.62,-0.50,-20.40,46.80,-45.60,37.0
2026/04/20 22:50:42.10,IMU,303.71,734.38,-595.70,1.16,0.62,-0.67,-20.40,45.30,-44.85,37.1
2026/04/20 22:50:42.20,IMU,311.52,731.93,-567.38,2.18,1.08,1.39,-21.15,44.85,-45.90,37.0
2026/04/20 22:50:42.31,IMU,306.15,750.98,-566.89,0.68,0.78,-1.23,-19.20,46.80,-45.15,37.2
2026/04/20 22:50:42.41,IMU,290.53,745.12,-573.73,-0.17,0.51,0.72,-19.65,45.75,-45.60,36.9
2026/04/20 22:50:42.51,IMU,295.90,748.05,-571.78,-1.53,-0.68,-1.79,-19.80,46.95,-44.25,37.1
2026/04/20 22:50:42.61,IMU,309.57,734.38,-580.08,0.09,-0.55,1.95,-19.20,46.80,-44.55,37.0
2026/04/20 22:50:42.71,IMU,301.76,736.82,-575.68,-1.40,0.99,-1.59,-19.05,46.95,-45.75,37.0
2026/04/20 22:50:42.81,IMU,302.73,745.12,-581.05,0.67,-0.50,-1.28,-19.95,47.25,-45.60,36.9
2026/04/20 22:50:42.91,IMU,302.25,734.38,-584.96,2.04,0.84,0.78,-19.65,46.50,-45.15,36.9
2026/04/20 22:50:43.01,IMU,304.69,736.33,-566.89,0.15,-0.42,1.76,-20.40,46.05,-47.10,36.8
2026/04/20 22:50:43.11,IMU,303.22,741.21,-574.71,-0.53,2.02,2.40,-19.20,45.75,-45.60,37.2
2026/04/20 22:50:43.21,IMU,302.73,730.96,-586.43,-0.15,0.11,2.69,-19.65,45.30,-45.60,37.0
2026/04/20 22:50:43.31,IMU,285.64,748.05,-581.54,2.37,-1.32,-1.93,-19.65,45.30,-45.60,37.0
2026/04/20 22:50:43.41,IMU,297.85,739.26,-571.78,-0.27,-1.63,0.15,-18.15,47.25,-44.85,37.1
2026/04/20 22:50:43.52,IMU,307.13,745.12,-575.20,0.47,1.60,0.51,-19.05,46.20,-45.75,37.2
2026/04/20 22:50:43.62,IMU,288.57,742.68,-583.01,0.89,0.53,-0.15,-19.80,46.20,-45.75,36.9
2026/04/20 22:50:43.72,IMU,301.27,731.93,-576.66,-0.15,0.71,0.90,-20.70,45.75,-46.35,36.9
2026/04/20 22:50:43.82,IMU,294.92,726.56,-580.08,-1.66,0.51,1.57,-21.30,45.90,-44.70,36.9
2026/04/20 22:50:43.92,IMU,297.85,751.95,-573.24,0.02,0.14,-1.74,-20.10,45.90,-46.50,36.8
2026/04/20 22:50:44.02,IMU,305.66,751.95,-569.82,-0.31,-0.75,2.52,-19.65,44.85,-45.15,36.8
2026/04/20 22:50:44.12,IMU,295.90,742.19,-586.91,0.33,0.51,2.22,-20.10,45.45,-45.45,36.9
2026/04/20 22:50:44.22,IMU,315.43,752.44,-593.75,-1.81,1.52,-2.52,-18.75,46.65,-45.75,36.8
2026/04/20 22:50:44.32,IMU,311.04,738.77,-590.82,0.03,0.63,-1.92,-19.20,48.30,-44.85,36.6
2026/04/20 22:50:44.42,IMU,298.34,738.28,-582.03,0.58,-0.71,0.05,-18.45,48.00,-45.90,36.8
2026/04/20 22:50:44.52,IMU,303.22,739.75,-580.08,-0.80,-1.78,-1.39,-19.50,45.15,-45.75,36.9
2026/04/20 22:50:44.62,IMU,304.20,730.96,-583.50,-1.10,4.66,0.61,-19.80,45.45,-44.70,36.8
2026/04/20 22:50:44.72,IMU,290.04,750.00,-574.22,-1.72,1.20,-0.41,-19.05,47.40,-45.45,36.7
2026/04/20 22:50:44.83,IMU,307.62,747.56,-591.80,-0.66,1.11,-1.49,-18.90,45.75,-45.90,36.8
2026/04/20 22:50:44.94,IMU,321.29,741.70,-569.34,0.43,1.75,0.11,-19.80,46.95,-45.75,36.8
2026/04/20 22:50:45.04,IMU,294.92,750.00,-578.13,1.29,2.04,0.91,-19.80,45.90,-45.45,36.5
2026/04/20 22:50:45.14,IMU,313.96,737.79,-579.10,1.37,-2.20,-1.57,-20.10,46.20,-46.20,36.8
2026/04/20 22:50:45.24,IMU,307.13,754.88,-577.64,-0.44,1.56,0.69,-18.45,45.75,-45.90,36.8
2026/04/20 22:50:45.34,IMU,296.88,748.54,-576.17,-1.21,-0.56,-1.20,-20.55,46.65,-45.45,36.8
2026/04/20 22:50:45.44,IMU,296.39,740.72,-577.64,0.02,-1.99,1.27,-18.90,44.85,-44.85,36.7
2026/04/20 22:50:45.54,IMU,309.08,736.82,-571.29,-0.74,-1.89,1.96,-18.45,46.05,-45.90,36.8
2026/04/20 22:50:45.64,IMU,286.62,739.75,-582.52,-0.41,1.73,-2.05,-18.90,46.50,-45.15,36.5
2026/04/20 22:50:45.74,IMU,291.99,725.10,-560.55,0.67,0.77,0.62,-20.10,46.65,-45.45,36.8
2026/04/20 22:50:45.84,IMU,298.34,750.98,-583.01,-0.87,3.39,-1.84,-20.10,45.15,-46.20,36.8
2026/04/20 22:50:45.94,IMU,301.76,738.77,-585.45,0.59,2.27,0.78,-21.75,44.55,-42.75,36.6
2026/04/20 22:50:46.04,IMU,294.92,736.33,-578.61,1.76,0.70,-0.61,-20.70,46.05,-45.60,36.5
2026/04/20 22:50:46.14,IMU,307.62,742.19,-585.94,-2.21,0.43,-1.80,-18.75,45.90,-45.45,36.7
2026/04/20 22:50:46.24,IMU,295.90,723.63,-577.64,1.08,0.07,0.54,-20.70,46.80,-46.35,36.8
2026/04/20 22:50:46.35,IMU,319.82,740.23,-573.73,0.03,-1.42,2.08,-18.90,45.75,-45.15,36.8
2026/04/20 22:50:46.45,IMU,304.20,737.30,-574.71,-0.18,-1.45,-0.91,-20.10,46.20,-43.95,36.7
2026/04/20 22:50:46.55,IMU,304.20,731.93,-584.47,1.16,-0.79,-2.32,-20.40,46.05,-46.35,36.5
2026/04/20 22:50:46.65,IMU,306.64,740.72,-573.24,-0.92,-1.80,-1.73,-20.40,45.75,-45.15,36.5
2026/04/20 22:50:46.75,IMU,292.97,743.16,-571.78,0.72,0.02,0.56,-20.10,47.70,-45.45,36.7
2026/04/20 22:50:46.85,IMU,291.99,742.68,-573.73,-0.02,-1.85,-0.79,-19.20,45.30,-46.65,36.6
2026/04/20 22:50:46.95,IMU,304.20,743.16,-583.01,0.87,0.46,0.69,-21.45,41.55,-41.55,36.7
2026/04/20 22:50:47.05,IMU,297.36,747.56,-583.98,-0.35,1.90,-0.40,-20.10,46.65,-46.50,36.8
2026/04/20 22:50:47.15,IMU,295.41,732.42,-582.03,-0.26,0.37,0.06,-21.30,46.95,-45.75,36.6
2026/04/20 22:50:47.26,IMU,303.22,744.63,-586.91,1.07,0.96,0.63,-19.95,46.50,-44.55,36.3
2026/04/20 22:50:47.36,IMU,304.69,745.61,-585.45,2.27,-0.24,-0.65,-20.55,46.20,-46.20,36.6
2026/04/20 22:50:47.46,IMU,298.83,738.77,-583.50,-0.32,1.14,0.07,-18.90,46.80,-45.15,36.5
2026/04/20 22:50:47.56,IMU,297.85,742.19,-580.08,-1.92,0.46,2.98,-21.15,46.50,-45.60,36.5
2026/04/20 22:50:47.66,IMU,295.90,738.28,-573.73,-1.00,0.43,-0.14,-19.95,45.30,-46.35,36.5
2026/04/20 22:50:47.76,IMU,291.50,736.82,-567.87,-0.42,-1.44,0.34,-21.45,45.30,-44.10,36.5
2026/04/20 22:50:47.86,IMU,305.66,738.77,-571.78,0.35,0.50,2.24,-20.10,45.90,-44.70,36.5
2026/04/20 22:50:47.96,IMU,295.90,740.72,-587.89,1.03,0.77,2.40,-20.40,47.25,-45.60,36.3
2026/04/20 22:50:48.06,IMU,291.99,738.77,-571.29,-0.31,1.15,1.92,-19.50,46.95,-45.75,36.5
2026/04/20 22:50:48.16,IMU,297.36,745.61,-586.91,-0.19,-1.19,-0.82,-19.65,45.30,-45.90,36.5
2026/04/20 22:50:48.26,IMU,293.46,744.63,-573.24,0.06,-2.68,0.89,-19.65,46.05,-44.55,36.3
2026/04/20 22:50:48.36,IMU,299.32,742.19,-578.13,-0.66,2.29,-1.71,-19.65,46.50,-46.35,36.3
2026/04/20 22:50:48.47,IMU,297.85,730.47,-582.03,0.37,1.29,-0.11,-19.95,46.80,-44.55,36.3
2026/04/20 22:50:48.57,IMU,300.78,739.75,-578.13,-0.61,1.12,-1.02,-18.00,46.20,-45.75,36.3
2026/04/20 22:50:48.67,IMU,315.43,748.54,-587.40,-0.95,0.40,0.18,-20.85,46.20,-45.00,36.5
2026/04/20 22:50:48.77,IMU,302.73,739.75,-577.64,0.31,-1.40,-1.48,-20.70,45.75,-46.65,36.3
2026/04/20 22:50:48.87,IMU,306.64,739.75,-582.52,-1.03,1.15,1.02,-18.90,47.25,-45.90,36.3
2026/04/20 22:50:48.97,IMU,302.73,740.23,-579.10,-0.36,-1.23,-0.40,-20.55,45.45,-45.00,36.4
2026/04/20 22:50:49.07,IMU,307.62,735.35,-578.13,-0.85,1.72,-3.11,-19.05,47.70,-45.75,36.5
2026/04/20 22:50:49.17,IMU,308.11,745.61,-581.54,0.59,-0.44,-0.20,-21.60,45.90,-45.00,35.9
2026/04/20 22:50:49.27,IMU,297.36,724.12,-589.36,1.27,0.91,-1.92,-18.90,44.85,-46.35,36.3
2026/04/20 22:50:49.37,IMU,296.39,735.84,-570.80,0.26,0.38,0.98,-20.10,44.70,-46.50,36.5
2026/04/20 22:50:49.47,IMU,295.41,730.96,-572.75,0.47,0.01,0.39,-19.05,46.20,-46.20,36.5
2026/04/20 22:50:49.57,IMU,298.83,740.23,-579.59,0.92,1.85,-0.95,-20.55,46.95,-45.00,36.5
2026/04/20 22:50:49.67,IMU,305.66,734.86,-583.01,0.11,1.55,-2.81,-20.55,47.40,-45.45,36.3
2026/04/20 22:50:49.78,IMU,305.66,756.35,-573.73,-0.47,2.44,-1.30,-20.40,45.30,-46.35,36.5
2026/04/20 22:50:49.88,IMU,291.02,737.30,-585.45,-0.96,1.84,2.98,-19.80,46.95,-46.80,36.5
2026/04/20 22:50:49.98,IMU,296.39,743.16,-579.59,-0.88,0.58,2.08,-21.60,45.45,-46.80,36.7
2026/04/20 22:50:50.08,IMU,300.78,740.23,-571.29,-0.68,1.71,-0.11,-19.80,46.20,-45.45,36.5
2026/04/20 22:50:50.18,IMU,299.80,739.26,-559.08,-1.55,0.20,-0.21,-19.95,45.75,-45.60,36.5
2026/04/20 22:50:50.28,IMU,313.96,739.75,-576.17,1.18,-1.04,-2.18,-20.55,47.40,-46.50,36.5
2026/04/20 22:50:50.38,IMU,288.57,730.47,-573.73,-0.53,-2.06,0.49,-18.90,44.85,-47.10,36.3
2026/04/20 22:50:50.48,IMU,303.71,743.16,-578.13,-0.19,0.03,-1.46,-20.70,46.50,-46.35,36.2
2026/04/20 22:50:50.58,IMU,303.22,738.28,-575.20,-0.18,1.31,-1.60,-18.75,45.90,-45.75,36.5
2026/04/20 22:50:50.68,IMU,295.90,731.45,-570.80,0.93,1.64,-1.85,-20.55,45.45,-45.75,36.3
2026/04/20 22:50:50.78,IMU,305.18,727.05,-579.59,-0.16,0.56,-0.38,-19.20,47.25,-46.35,36.5
2026/04/20 22:50:50.88,IMU,302.73,740.72,-577.64,-0.89,0.00,-0.19,-18.90,46.50,-43.80,36.3
2026/04/20 22:50:50.99,IMU,301.27,739.26,-585.45,-0.98,0.56,-1.84,-19.05,46.20,-45.00,36.5
2026/04/20 22:50:51.09,IMU,298.34,738.28,-575.20,1.32,-1.27,0.74,-18.90,47.55,-45.90,36.2
2026/04/20 22:50:51.19,IMU,293.46,748.54,-571.78,1.95,0.95,1.51,-19.50,45.15,-46.20,36.1
2026/04/20 22:50:51.29,IMU,300.29,746.58,-575.68,0.35,-0.44,-1.29,-19.20,46.50,-45.60,36.2
2026/04/20 22:50:51.39,IMU,300.78,746.09,-588.87,2.19,-1.35,0.75,-18.75,45.90,-45.45,36.3
2026/04/20 22:50:51.49,IMU,310.06,738.28,-584.96,-0.82,0.68,-2.08,-21.30,45.45,-45.45,36.3
2026/04/20 22:50:51.59,IMU,284.67,743.65,-586.43,-0.74,2.90,-0.39,-19.05,45.15,-46.20,36.5
2026/04/20 22:50:51.69,IMU,301.27,750.98,-568.85,-2.08,1.18,0.96,-19.80,45.90,-46.80,36.0
2026/04/20 22:50:51.79,IMU,291.02,748.05,-591.31,0.18,0.07,-1.16,-18.75,47.40,-46.20,36.3
2026/04/20 22:50:51.89,IMU,311.52,730.47,-569.82,0.63,0.18,0.34,-20.55,45.45,-46.20,36.3
2026/04/20 22:50:51.99,IMU,310.55,735.84,-569.82,-2.05,-1.92,0.57,-20.70,47.25,-44.10,36.2
2026/04/20 22:50:52.09,IMU,314.94,749.02,-572.75,-0.15,-0.53,1.48,-19.05,45.90,-46.50,36.3
2026/04/20 22:50:52.19,IMU,295.41,748.05,-579.59,-1.42,-0.44,-1.07,-20.55,46.20,-45.75,36.3
2026/04/20 22:50:52.30,IMU,304.20,740.23,-567.38,-0.48,0.69,1.53,-18.45,46.05,-46.35,36.2
2026/04/20 22:50:52.40,IMU,302.25,750.00,-580.57,-2.50,0.47,-1.18,-19.95,46.80,-45.60,36.3
2026/04/20 22:50:52.50,IMU,313.96,737.79,-574.71,-0.56,-1.16,0.71,-19.65,44.85,-44.10,36.1
2026/04/20 22:50:52.60,IMU,305.66,737.30,-576.17,0.95,-1.99,0.67,-19.05,45.15,-45.75,36.3
2026/04/20 22:50:52.70,IMU,308.11,735.35,-566.41,1.22,0.07,-1.27,-20.70,45.30,-45.15,36.5
2026/04/20 22:50:52.80,IMU,293.95,736.33,-571.78,1.66,0.75,-0.56,-19.05,46.95,-44.25,36.2
2026/04/20 22:50:52.90,IMU,308.11,745.12,-578.61,2.14,3.81,-0.14,-20.40,46.05,-44.85,36.5
2026/04/20 22:50:53.00,IMU,296.39,737.30,-572.27,1.06,-0.74,-2.38,-20.10,46.65,-46.50,36.3
2026/04/20 22:50:53.10,IMU,291.50,740.23,-577.64,-0.45,1.49,-2.05,-22.80,44.70,-41.10,36.3
2026/04/20 22:50:53.20,IMU,302.25,736.82,-587.89,1.97,-0.84,0.21,-20.40,44.10,-46.35,36.2
2026/04/20 22:50:53.30,IMU,301.27,736.33,-574.71,-0.28,0.77,-1.46,-19.80,45.45,-44.25,36.5
2026/04/20 22:50:53.40,IMU,282.23,735.35,-581.05,1.04,-1.05,-0.45,-20.10,44.70,-45.00,36.2
2026/04/20 22:50:53.51,IMU,298.34,745.61,-578.13,-1.71,-1.73,-0.46,-19.05,45.90,-45.75,36.3
2026/04/20 22:50:53.61,IMU,296.39,748.54,-571.78,0.31,2.08,0.83,-19.95,46.50,-45.90,36.3
2026/04/20 22:50:53.71,IMU,304.20,748.54,-579.10,-1.50,0.23,1.74,-19.65,46.50,-44.85,36.1
2026/04/20 22:50:53.81,IMU,296.88,745.61,-578.13,-0.40,-1.96,-0.15,-19.80,45.15,-45.75,36.0
2026/04/20 22:50:53.91,IMU,309.57,741.70,-574.22,1.23,1.91,0.63,-21.45,47.25,-45.60,36.3
2026/04/20 22:50:54.01,IMU,304.20,747.07,-581.54,-1.77,1.02,2.33,-19.20,46.80,-47.40,36.2
2026/04/20 22:50:54.12,IMU,298.83,742.19,-585.45,-1.44,0.78,0.77,-24.45,43.35,-40.20,36.1
2026/04/20 22:50:54.22,IMU,299.32,747.56,-573.24,0.59,0.66,-1.08,-19.95,47.25,-44.55,36.1
2026/04/20 22:50:54.32,IMU,296.88,744.14,-574.71,0.79,1.63,0.00,-20.70,46.50,-45.15,36.2
2026/04/20 22:50:54.42,IMU,298.34,728.03,-572.75,0.69,0.89,-0.82,-20.85,45.15,-46.50,36.3
2026/04/20 22:50:54.53,IMU,305.66,735.35,-581.54,-0.18,0.45,-0.63,-18.75,46.20,-45.00,36.3
2026/04/20 22:50:54.63,IMU,299.80,732.42,-580.08,-0.59,0.85,-0.28,-19.20,45.30,-44.85,36.0
2026/04/20 22:50:54.73,IMU,293.95,739.26,-571.78,-1.30,-2.92,-1.02,-20.40,46.05,-47.10,35.9
2026/04/20 22:50:54.83,IMU,302.25,734.38,-583.50,-0.81,1.43,1.57,-20.40,46.50,-45.60,36.1
2026/04/20 22:50:54.93,IMU,302.73,746.09,-578.61,-1.27,0.72,2.15,-19.80,45.45,-45.00,36.1
2026/04/20 22:50:55.03,IMU,319.82,731.93,-583.50,-0.94,1.24,-0.36,-21.75,46.80,-45.90,36.2
2026/04/20 22:50:55.13,IMU,309.08,759.77,-564.45,-0.84,0.20,1.69,-20.55,46.20,-45.75,35.8
2026/04/20 22:50:55.23,IMU,295.41,739.75,-579.10,-1.38,1.55,-0.02,-20.85,47.70,-45.75,36.1
2026/04/20 22:50:55.33,IMU,298.83,739.75,-575.68,-0.40,-1.34,0.76,-18.30,47.70,-46.80,35.9
2026/04/20 22:50:55.43,IMU,312.50,746.09,-573.73,-0.54,0.80,-0.96,-19.65,47.55,-44.85,35.9
2026/04/20 22:50:55.53,IMU,299.80,744.14,-577.64,0.68,0.63,0.49,-21.15,44.85,-45.60,35.9
2026/04/20 22:50:55.63,IMU,303.22,739.75,-581.54,0.00,-0.21,-0.02,-19.80,48.15,-43.95,35.9
2026/04/20 22:50:55.73,IMU,308.11,730.96,-570.80,0.82,0.56,1.03,-19.80,46.65,-45.75,36.1
2026/04/20 22:50:55.84,IMU,310.06,734.38,-573.73,-0.24,0.11,2.75,-20.85,46.65,-45.75,35.9
2026/04/20 22:50:55.94,IMU,295.90,746.09,-573.24,1.39,-1.07,-0.78,-19.95,44.85,-44.85,35.9
2026/04/20 22:50:56.04,IMU,303.71,747.56,-570.31,-0.14,-0.31,0.56,-21.15,46.05,-46.35,36.1
2026/04/20 22:50:56.14,IMU,292.97,736.82,-577.64,0.71,-2.20,0.08,-19.65,46.05,-45.15,35.9
2026/04/20 22:50:56.24,IMU,297.36,735.84,-564.45,-0.67,1.17,1.43,-20.55,46.20,-44.25,36.2
2026/04/20 22:50:56.34,IMU,287.60,732.91,-581.54,-0.47,0.75,0.39,-20.55,46.95,-45.75,36.1
2026/04/20 22:50:56.44,IMU,306.64,747.56,-567.87,1.77,1.08,1.02,-19.95,45.30,-45.15,35.9
2026/04/20 22:50:56.54,IMU,305.18,741.70,-584.47,0.72,0.38,1.31,-19.05,46.95,-45.75,36.0
2026/04/20 22:50:56.64,IMU,311.52,738.28,-579.10,0.66,1.15,-0.22,-19.80,45.90,-46.20,36.1
2026/04/20 22:50:56.74,IMU,310.55,743.65,-578.61,1.67,-0.50,2.24,-20.85,48.60,-45.00,36.1
2026/04/20 22:50:56.84,IMU,309.08,754.88,-573.73,-0.72,-0.02,-0.03,-20.85,46.20,-46.20,35.8
2026/04/20 22:50:56.94,IMU,299.32,730.47,-586.91,0.47,-0.20,0.02,-18.90,46.50,-44.85,35.8
2026/04/20 22:50:57.05,IMU,312.01,741.21,-577.15,-1.00,-0.07,-0.51,-20.55,46.20,-45.75,35.9
2026/04/20 22:50:57.15,IMU,296.88,748.05,-573.24,1.18,-1.41,-0.76,-18.90,45.75,-45.60,35.9
2026/04/20 22:50:57.25,IMU,308.59,743.16,-583.50,0.33,2.52,3.04,-20.10,46.95,-44.25,35.7
2026/04/20 22:50:57.35,IMU,295.41,728.52,-576.17,-1.56,2.68,1.31,-20.70,45.75,-45.60,35.8
2026/04/20 22:50:57.45,IMU,288.57,736.82,-571.78,1.92,-0.47,2.21,-20.10,46.20,-46.20,35.7
2026/04/20 22:50:57.55,IMU,292.97,743.16,-562.99,-0.39,1.01,0.40,-19.95,46.05,-45.60,35.9
2026/04/20 22:50:57.65,IMU,313.48,744.14,-581.05,-0.63,-1.52,-2.06,-20.10,46.65,-45.00,35.9
2026/04/20 22:50:57.75,IMU,290.04,739.75,-577.15,0.22,2.37,-1.44,-19.80,46.65,-46.50,35.7
2026/04/20 22:50:57.85,IMU,296.39,747.56,-560.06,-0.65,-0.56,0.23,-19.20,45.75,-45.90,35.9
2026/04/20 22:50:57.95,IMU,297.85,734.86,-579.59,-0.60,-0.27,-1.18,-19.05,45.45,-46.20,35.7
2026/04/20 22:50:58.05,IMU,294.43,728.03,-563.48,-0.49,0.21,-1.66,-18.90,45.75,-45.60,35.9
2026/04/20 22:50:58.15,IMU,294.92,745.61,-565.43,0.06,-0.31,-0.17,-19.65,47.25,-45.60,36.0
2026/04/20 22:50:58.25,IMU,301.27,755.37,-556.15,-0.99,1.21,4.67,-20.40,46.05,-44.55,35.9
2026/04/20 22:50:58.36,IMU,299.80,738.77,-576.17,-1.20,0.29,-0.08,-19.95,46.50,-45.15,35.9
2026/04/20 22:50:58.46,IMU,305.18,730.47,-583.98,-0.18,1.27,0.72,-20.55,45.90,-46.20,35.9
2026/04/20 22:50:58.56,IMU,307.13,756.84,-563.96,-0.48,0.82,-0.52,-20.55,45.45,-45.45,35.7
2026/04/20 22:50:58.66,IMU,295.41,744.14,-581.54,1.29,1.23,-0.61,-21.30,45.45,-47.25,35.6
2026/04/20 22:50:58.76,IMU,305.18,731.45,-577.15,1.30,0.44,0.65,-20.55,46.95,-45.45,35.9
2026/04/20 22:50:58.86,IMU,300.78,741.70,-572.27,1.18,2.08,-0.31,-19.65,45.30,-45.90,35.6
2026/04/20 22:50:58.96,IMU,292.97,744.63,-577.15,-0.42,0.72,-0.53,-19.95,47.55,-45.60,35.6
2026/04/20 22:50:59.06,IMU,297.85,739.75,-571.29,-0.75,-0.04,-0.94,-19.80,45.90,-45.00,35.6
2026/04/20 22:50:59.16,IMU,286.62,729.98,-585.45,0.14,0.13,-1.34,-20.40,46.80,-45.60,35.5
2026/04/20 22:50:59.26,IMU,306.64,734.86,-573.24,-0.77,-0.24,2.50,-19.50,45.90,-46.20,35.6
2026/04/20 22:50:59.36,IMU,294.43,724.61,-581.54,1.21,-1.37,0.40,-20.40,45.30,-45.15,35.6
2026/04/20 22:50:59.46,IMU,295.41,733.89,-567.38,0.11,-0.99,-2.02,-19.20,45.75,-45.90,35.8
2026/04/20 22:50:59.56,IMU,290.53,743.16,-576.17,-1.24,0.10,-0.13,-19.20,46.80,-44.55,35.7
2026/04/20 22:50:59.67,IMU,302.25,742.19,-580.08,-0.47,1.27,-0.11,-19.80,46.95,-46.80,35.3
2026/04/20 22:50:59.77,IMU,294.92,740.72,-582.03,-2.08,0.89,-2.56,-20.70,46.50,-46.65,35.7
2026/04/20 22:50:59.87,IMU,301.76,737.79,-579.10,1.47,0.40,1.07,-18.00,46.65,-46.20,35.6
2026/04/20 22:50:59.97,IMU,299.80,736.82,-571.29,0.61,0.66,1.11,-20.10,46.95,-45.00,35.5
2026/04/20 22:51:00.07,IMU,286.62,741.21,-569.34,-0.02,2.92,0.44,-20.85,47.40,-45.45,35.3
2026/04/20 22:51:00.17,IMU,301.27,748.05,-580.08,-1.04,-0.04,-1.42,-19.05,45.90,-45.75,35.3
2026/04/20 22:51:00.27,IMU,291.99,751.95,-578.13,-0.65,-1.90,0.51,-20.40,46.50,-44.85,35.6
2026/04/20 22:51:00.37,IMU,305.18,742.68,-578.13,-1.40,0.73,-1.42,-19.95,45.75,-45.90,35.5
2026/04/20 22:51:00.47,IMU,288.09,744.14,-579.59,0.76,1.83,1.43,-20.85,48.15,-45.45,35.5
2026/04/20 22:51:00.57,IMU,291.50,736.33,-569.34,-1.32,0.21,3.21,-20.10,46.65,-45.75,35.6
2026/04/20 22:51:00.67,IMU,307.62,736.82,-572.27,0.31,0.01,-0.89,-19.80,45.15,-46.80,35.4
2026/04/20 22:51:00.77,IMU,296.88,737.79,-574.71,1.92,0.05,-0.81,-19.50,45.90,-45.45,35.5
2026/04/20 22:51:00.87,IMU,303.22,744.63,-587.40,-1.47,-1.38,-2.39,-20.10,45.90,-46.20,35.4
2026/04/20 22:51:00.98,IMU,307.62,740.72,-581.05,-0.59,-1.97,1.14,-21.45,45.30,-45.60,35.5
2026/04/20 22:51:01.08,IMU,293.95,739.26,-588.38,0.08,2.68,-1.04,-20.85,46.95,-46.20,35.5
2026/04/20 22:51:01.18,IMU,296.88,742.68,-580.57,-1.39,1.19,1.76,-19.50,45.90,-46.50,35.4
2026/04/20 22:51:01.29,IMU,297.85,747.56,-576.17,0.33,0.65,1.04,-21.60,42.90,-40.05,35.4
2026/04/20 22:51:01.39,IMU,303.71,738.28,-581.54,-0.28,0.69,-0.47,-19.05,47.40,-46.20,35.5
2026/04/20 22:51:01.49,IMU,304.69,732.42,-580.08,-1.05,-1.53,0.24,-21.15,48.30,-46.35,35.5
2026/04/20 22:51:01.59,IMU,304.69,737.79,-583.50,0.65,1.59,-0.30,-19.65,47.25,-44.85,35.6
2026/04/20 22:51:01.69,IMU,308.11,750.00,-584.47,1.90,-1.92,-0.26,-20.70,45.75,-45.60,35.3
2026/04/20 22:51:01.79,IMU,297.36,751.95,-581.54,-0.35,2.37,-1.87,-18.75,45.90,-44.25,35.6
2026/04/20 22:51:01.89,IMU,308.11,738.77,-590.82,0.02,-0.14,-1.95,-21.45,47.25,-44.55,35.4
2026/04/20 22:51:01.99,IMU,291.99,728.03,-589.84,0.77,2.29,-2.37,-19.20,46.80,-45.60,35.2
2026/04/20 22:51:02.09,IMU,297.85,745.61,-588.38,-1.77,0.33,3.24,-20.55,46.95,-45.45,35.6
2026/04/20 22:51:02.19,IMU,313.96,758.30,-572.27,0.66,1.61,-1.20,-19.20,45.75,-46.35,35.1
2026/04/20 22:51:02.29,IMU,300.78,752.93,-576.17,0.07,0.53,-2.85,-18.30,47.40,-46.20,35.4
2026/04/20 22:51:02.40,IMU,299.32,737.79,-578.13,0.38,0.33,-1.66,-19.05,45.45,-45.75,35.5
2026/04/20 22:51:02.50,IMU,298.83,751.46,-574.71,1.04,-0.95,-1.20,-18.90,46.05,-46.35,35.3
2026/04/20 22:51:02.60,IMU,294.92,736.82,-580.57,0.20,1.58,-1.19,-18.90,46.50,-45.90,35.4
2026/04/20 22:51:02.70,IMU,294.92,749.51,-583.98,-0.59,-0.23,1.44,-19.95,46.50,-45.60,35.1
2026/04/20 22:51:02.80,IMU,299.80,736.82,-576.66,0.69,-2.10,-2.92,-19.95,46.50,-44.85,35.3
2026/04/20 22:51:02.90,IMU,311.04,738.77,-574.22,1.15,0.00,-0.21,-19.20,46.50,-45.60,35.1
2026/04/20 22:51:03.00,IMU,294.92,738.28,-578.13,1.76,-0.21,3.33,-20.70,46.50,-46.35,34.9
2026/04/20 22:51:03.10,IMU,299.80,752.44,-578.61,0.22,2.56,-0.44,-21.30,46.95,-46.80,35.1
2026/04/20 22:51:03.20,IMU,303.71,748.05,-582.52,1.84,-0.92,-0.06,-18.90,46.80,-47.40,35.1
2026/04/20 22:51:03.30,IMU,289.06,736.82,-587.89,-1.08,0.35,-0.31,-21.30,46.65,-45.00,35.2
2026/04/20 22:51:03.40,IMU,294.92,735.84,-572.75,-0.37,0.43,-0.83,-19.50,46.95,-45.00,34.9
2026/04/20 22:51:03.50,IMU,300.78,744.14,-574.22,0.78,-0.96,1.83,-19.65,46.80,-44.85,35.0
2026/04/20 22:51:03.60,IMU,285.64,745.61,-581.05,-0.18,1.08,0.44,-20.10,46.65,-46.20,34.9
2026/04/20 22:51:03.70,IMU,302.73,745.61,-586.91,-0.05,0.36,-0.87,-19.65,45.30,-46.35,35.1
2026/04/20 22:51:03.81,IMU,291.02,745.12,-587.40,0.96,-0.52,0.75,-20.10,46.20,-45.00,34.7
2026/04/20 22:51:03.91,IMU,306.15,744.14,-585.45,-0.45,-2.39,0.27,-19.05,45.90,-45.45,34.9
2026/04/20 22:51:04.01,IMU,301.76,731.93,-587.89,-0.75,-0.37,1.07,-19.95,46.80,-46.65,35.2
2026/04/20 22:51:04.11,IMU,293.46,736.33,-587.89,0.45,1.11,-0.37,-19.05,47.40,-45.45,34.9
2026/04/20 22:51:04.21,IMU,300.78,740.72,-582.52,0.52,-1.15,0.40,-20.10,45.90,-46.20,35.1
2026/04/20 22:51:04.31,IMU,309.57,747.07,-587.89,0.07,0.24,-0.63,-18.30,45.90,-46.80,34.9
2026/04/20 22:51:04.41,IMU,316.89,739.26,-588.38,-0.95,1.08,-0.27,-19.80,44.70,-46.20,34.9
2026/04/20 22:51:04.51,IMU,298.34,747.07,-575.68,-1.05,-1.25,0.43,-19.95,46.80,-45.15,34.9
2026/04/20 22:51:04.61,IMU,301.76,736.33,-583.01,-0.51,-0.67,-0.92,-19.95,47.25,-45.60,35.0
2026/04/20 22:51:04.71,IMU,304.20,747.56,-591.31,1.24,-1.05,-0.62,-20.40,47.25,-48.15,35.1
2026/04/20 22:51:04.81,IMU,312.50,740.23,-573.24,0.94,2.37,0.34,-19.50,46.20,-45.45,34.6
2026/04/20 22:51:04.91,IMU,303.71,753.91,-584.47,-0.92,0.61,-0.21,-19.80,46.65,-46.50,35.0
2026/04/20 22:51:05.01,IMU,298.34,734.86,-580.57,0.81,0.93,-0.15,-20.40,46.05,-46.65,35.2
2026/04/20 22:51:05.12,IMU,298.83,745.61,-579.10,0.81,-2.02,0.08,-19.65,46.50,-47.10,34.9
2026/04/20 22:51:05.22,IMU,312.01,743.65,-586.43,-0.86,-1.18,-1.13,-20.85,46.95,-45.75,35.1
2026/04/20 22:51:05.32,IMU,312.01,750.49,-583.98,0.31,0.25,2.64,-20.40,46.50,-46.65,34.8
2026/04/20 22:51:05.42,IMU,305.18,742.19,-587.40,-0.42,1.35,0.36,-19.50,47.40,-45.45,34.9
2026/04/20 22:51:05.52,IMU,300.78,739.26,-575.20,1.33,1.47,1.08,-19.80,45.90,-45.00,34.9
2026/04/20 22:51:05.62,IMU,303.71,745.12,-572.75,0.77,-0.95,0.11,-20.40,46.05,-45.90,35.2
2026/04/20 22:51:05.72,IMU,312.01,744.14,-584.96,0.59,-0.41,0.05,-19.95,46.80,-46.65,34.6
2026/04/20 22:51:05.82,IMU,305.18,753.42,-576.66,-0.08,-1.08,1.31,-19.95,46.50,-45.15,34.7
2026/04/20 22:51:05.92,IMU,304.20,757.32,-575.20,0.34,0.59,0.22,-20.40,48.00,-44.55,35.1
2026/04/20 22:51:06.02,IMU,303.22,732.91,-574.71,0.96,1.29,0.26,-20.40,46.05,-46.35,35.1
2026/04/20 22:51:06.12,IMU,307.13,729.49,-561.04,-0.59,-0.81,1.11,-18.45,47.25,-46.35,34.9
2026/04/20 22:51:06.22,IMU,295.90,754.39,-575.68,-0.39,-0.81,0.11,-18.90,46.50,-46.35,35.0
2026/04/20 22:51:06.32,IMU,300.78,743.16,-569.82,-0.40,1.43,0.50,-19.20,45.75,-47.40,34.7
2026/04/20 22:51:06.43,IMU,291.99,731.93,-565.92,-2.21,-2.34,1.31,-20.10,45.90,-45.45,35.0
2026/04/20 22:51:06.53,IMU,301.76,736.82,-564.45,-0.36,-2.39,-0.57,-22.05,45.45,-44.70,35.1
2026/04/20 22:51:06.63,IMU,301.27,735.35,-575.20,0.58,-0.95,-2.17,-19.20,45.75,-47.10,35.2
2026/04/20 22:51:06.73,IMU,304.20,756.35,-570.31,-1.37,1.24,1.30,-19.95,47.25,-45.90,35.0
2026/04/20 22:51:06.83,IMU,306.64,749.02,-581.05,-1.15,-0.44,-0.73,-21.15,46.80,-47.10,34.7
2026/04/20 22:51:06.93,IMU,297.36,741.70,-582.52,-0.10,-0.17,0.46,-19.65,46.80,-45.90,34.8
2026/04/20 22:51:07.03,IMU,312.50,742.68,-576.66,-0.29,0.62,-0.14,-22.35,44.70,-43.95,35.0
2026/04/20 22:51:07.13,IMU,299.32,751.46,-583.01,0.66,0.41,-1.69,-20.85,45.90,-45.75,35.2
2026/04/20 22:51:07.23,IMU,316.41,738.77,-575.68,0.96,0.06,-0.56,-19.05,46.65,-46.80,34.9
2026/04/20 22:51:07.33,IMU,307.62,745.61,-593.75,0.08,0.31,0.15,-20.55,46.20,-46.80,34.9
2026/04/20 22:51:07.43,IMU,305.18,732.42,-579.10,-1.92,1.64,1.42,-21.60,45.45,-41.40,34.9
2026/04/20 22:51:07.53,IMU,303.71,742.68,-581.54,0.92,-0.55,1.02,-21.30,46.95,-44.70,35.1
2026/04/20 22:51:07.63,IMU,291.99,746.58,-583.98,0.24,1.32,1.08,-20.70,46.50,-45.90,35.1
2026/04/20 22:51:07.73,IMU,293.46,735.35,-587.40,-0.82,0.44,2.76,-20.10,46.95,-44.70,34.7
2026/04/20 22:51:07.84,IMU,309.57,739.75,-578.61,0.53,-0.89,2.20,-19.80,46.95,-46.20,34.9
2026/04/20 22:51:07.94,IMU,300.78,736.33,-578.13,0.73,2.63,-1.06,-19.95,45.75,-46.65,34.9
2026/04/20 22:51:08.04,IMU,295.90,738.77,-583.50,-0.02,0.02,1.51,-19.20,47.25,-45.90,34.9
2026/04/20 22:51:08.14,IMU,299.32,742.19,-589.36,-1.21,0.78,0.55,-19.50,46.95,-43.95,34.9
2026/04/20 22:51:08.24,IMU,295.90,751.46,-578.13,1.02,-0.31,0.74,-20.10,46.65,-45.45,35.0
2026/04/20 22:51:08.34,IMU,297.85,743.16,-587.40,-0.92,0.08,0.03,-19.50,46.65,-44.70,34.5
2026/04/20 22:51:08.44,IMU,301.27,756.35,-587.89,-0.94,-0.86,0.27,-20.10,46.65,-45.45,35.0
2026/04/20 22:51:08.54,IMU,307.62,743.16,-589.84,-0.24,-0.52,1.21,-20.55,45.90,-45.00,35.1
2026/04/20 22:51:08.64,IMU,315.92,745.12,-583.01,0.40,1.99,1.54,-20.55,45.45,-46.80,34.9
2026/04/20 22:51:08.74,IMU,283.20,748.05,-603.03,-2.05,-0.66,-1.27,-20.40,46.05,-45.15,34.9
2026/04/20 22:51:08.84,IMU,300.78,753.91,-579.59,0.04,2.47,1.22,-18.30,45.90,-45.75,34.5
2026/04/20 22:51:08.94,IMU,292.97,743.16,-583.01,-0.35,-1.15,0.70,-19.95,45.30,-44.85,34.5
2026/04/20 22:51:09.05,IMU,308.11,747.56,-580.57,-0.14,0.53,1.52,-19.95,46.80,-46.35,34.7
2026/04/20 22:51:09.15,IMU,303.71,745.12,-588.38,0.92,2.29,-2.52,-20.10,46.20,-45.00,34.7
2026/04/20 22:51:09.25,IMU,297.85,733.40,-583.01,-0.24,1.34,-0.85,-19.80,47.40,-46.20,34.7
2026/04/20 22:51:09.35,IMU,313.96,740.23,-579.59,-1.05,-3.12,0.39,-19.05,46.20,-46.20,34.6
2026/04/20 22:51:09.45,IMU,304.69,733.89,-580.57,-0.52,1.73,0.03,-20.40,46.50,-45.15,34.6
2026/04/20 22:51:09.55,IMU,310.55,741.21,-581.05,-0.94,0.18,0.60,-19.65,46.05,-46.65,34.9
2026/04/20 22:51:09.65,IMU,307.13,735.84,-584.96,0.49,1.87,0.70,-19.65,45.75,-45.60,35.1
2026/04/20 22:51:09.75,IMU,304.20,738.28,-583.50,0.03,0.63,0.57,-19.95,47.55,-45.60,34.5
2026/04/20 22:51:09.85,IMU,299.80,741.70,-591.80,-1.44,0.67,2.63,-20.40,47.55,-45.90,34.6
2026/04/20 22:51:09.95,IMU,288.09,735.84,-581.05,-2.24,-0.28,-0.68,-19.50,45.15,-45.00,34.5
2026/04/20 22:51:10.05,IMU,312.50,735.35,-573.73,0.27,-0.41,0.18,-21.60,45.15,-45.75,34.9
2026/04/20 22:51:10.15,IMU,301.27,732.91,-588.38,-0.60,0.98,-0.44,-20.40,46.05,-45.60,34.9
2026/04/20 22:51:10.25,IMU,304.20,756.84,-584.47,-0.25,-0.50,0.08,-18.90,47.25,-45.90,34.7
2026/04/20 22:51:10.35,IMU,313.48,735.35,-579.10,1.00,-0.76,-1.61,-19.65,46.05,-45.90,34.7
2026/04/20 22:51:10.46,IMU,304.20,746.58,-578.61,-0.29,0.66,-0.60,-19.50,45.45,-45.00,34.5
2026/04/20 22:51:10.56,IMU,309.57,750.98,-589.36,0.66,-1.77,-2.96,-20.10,45.90,-47.25,34.7
2026/04/20 22:51:10.66,IMU,302.25,744.63,-587.40,1.71,1.73,0.36,-19.80,46.20,-46.20,34.6
2026/04/20 22:51:10.76,IMU,299.32,730.96,-583.98,0.06,-1.27,1.69,-19.20,46.80,-45.15,34.6
2026/04/20 22:51:10.86,IMU,303.22,737.30,-583.98,0.12,0.01,0.60,-18.45,46.05,-45.60,34.7
2026/04/20 22:51:10.96,IMU,292.97,738.77,-579.59,-0.63,1.56,-0.73,-19.95,47.55,-45.60,34.5
2026/04/20 22:51:11.06,IMU,296.39,736.33,-585.45,-0.18,-0.79,-1.15,-19.20,45.75,-45.90,34.4
2026/04/20 22:51:11.16,IMU,299.80,737.30,-574.22,0.52,2.42,-0.32,-18.75,47.40,-45.45,34.6
2026/04/20 22:51:11.26,IMU,299.80,742.19,-585.45,-1.59,2.89,1.56,-19.20,46.50,-45.60,34.7
2026/04/20 22:51:11.36,IMU,286.13,735.84,-589.36,2.79,0.99,1.28,-21.15,45.30,-45.60,34.8
2026/04/20 22:51:11.46,IMU,305.66,746.09,-587.89,0.28,1.10,1.18,-19.80,46.65,-44.70,34.7
2026/04/20 22:51:11.56,IMU,303.22,741.70,-576.66,1.50,-0.74,-0.15,-19.50,45.90,-46.80,34.5
2026/04/20 22:51:11.66,IMU,307.62,742.19,-579.59,0.81,-1.66,-1.85,-20.85,46.65,-46.50,34.6
2026/04/20 22:51:11.77,IMU,309.08,750.98,-582.03,1.66,1.37,-1.27,-19.65,46.80,-45.90,34.6
2026/04/20 22:51:11.88,IMU,294.43,744.63,-585.94,2.23,0.82,0.40,-19.65,45.30,-45.90,34.7
2026/04/20 22:51:11.98,IMU,303.71,749.02,-587.89,-0.47,1.25,-0.25,-20.10,46.20,-46.50,34.5
2026/04/20 22:51:12.08,IMU,299.80,747.56,-569.34,0.43,1.17,-1.27,-20.40,46.50,-46.35,34.7
2026/04/20 22:51:12.18,IMU,303.22,727.05,-572.75,-0.21,1.18,1.01,-19.65,45.75,-46.65,34.7
2026/04/20 22:51:12.28,IMU,299.32,742.68,-576.17,0.02,-1.08,-0.44,-19.50,46.20,-45.75,34.5
2026/04/20 22:51:12.38,IMU,305.66,745.61,-576.66,0.91,0.61,1.07,-18.15,46.05,-44.85,34.7
2026/04/20 22:51:12.48,IMU,304.69,746.58,-582.52,0.45,0.58,1.71,-19.65,47.25,-46.35,34.6
2026/04/20 22:51:12.59,IMU,292.97,736.33,-563.48,-1.29,2.63,1.64,-20.70,46.05,-44.55,34.7
2026/04/20 22:51:12.69,IMU,290.04,742.68,-578.13,-0.30,-2.89,-0.99,-19.65,46.50,-45.15,34.7
2026/04/20 22:51:12.79,IMU,300.29,741.21,-568.36,0.21,2.99,0.85,-19.80,46.20,-46.50,34.6
2026/04/20 22:51:12.89,IMU,304.69,744.14,-573.24,0.02,-0.02,0.27,-18.30,46.65,-46.20,34.7
2026/04/20 22:51:12.99,IMU,302.25,746.09,-578.61,0.92,0.12,2.76,-19.65,45.75,-46.35,34.5
2026/04/20 22:51:13.09,IMU,313.96,742.19,-562.99,1.50,-1.31,-1.77,-20.40,46.05,-47.10,34.6
2026/04/20 22:51:13.19,IMU,292.48,745.61,-583.01,0.23,-2.58,0.02,-19.95,45.75,-45.90,34.7
2026/04/20 22:51:13.29,IMU,304.69,751.46,-581.54,2.02,-0.35,0.43,-18.15,45.30,-46.35,34.6
2026/04/20 22:51:13.39,IMU,302.25,753.42,-583.50,-0.42,-0.63,-1.66,-21.45,47.25,-45.90,34.9
2026/04/20 22:51:13.49,IMU,293.95,741.70,-582.03,-0.43,-1.11,0.11,-19.20,46.50,-46.65,34.7
2026/04/20 22:51:13.59,IMU,321.78,736.33,-561.04,0.18,0.75,0.68,-22.50,46.80,-44.10,34.7
2026/04/20 22:51:13.69,IMU,307.13,738.28,-577.64,-1.25,0.11,1.11,-19.05,46.95,-45.75,34.5
2026/04/20 22:51:13.79,IMU,291.50,748.05,-580.08,1.57,1.72,-2.44,-20.55,46.20,-45.45,34.7
2026/04/20 22:51:13.89,IMU,302.73,745.12,-560.55,-1.85,0.98,1.63,-20.55,46.65,-46.20,34.7
2026/04/20 22:51:14.00,IMU,304.20,740.72,-579.10,0.53,-0.12,-2.11,-20.40,46.50,-46.35,34.7
2026/04/20 22:51:14.10,IMU,307.13,749.51,-575.20,-0.22,0.59,2.70,-18.30,45.45,-45.45,34.7
2026/04/20 22:51:14.20,IMU,299.80,750.49,-563.48,0.61,0.27,-0.61,-19.50,47.40,-44.25,34.7
2026/04/20 22:51:14.30,IMU,309.57,727.05,-574.22,-0.38,1.85,0.57,-19.95,46.50,-47.10,34.7
2026/04/20 22:51:14.40,IMU,293.46,742.68,-565.92,1.86,-0.13,-1.53,-17.55,46.65,-45.45,35.0
2026/04/20 22:51:14.50,IMU,305.18,749.02,-567.38,-0.89,0.15,1.51,-19.20,45.75,-45.60,34.8
2026/04/20 22:51:14.60,IMU,278.81,748.54,-563.96,-1.53,2.34,0.36,-19.05,46.20,-45.75,34.6
2026/04/20 22:51:14.70,IMU,311.04,740.23,-565.43,-0.12,0.48,0.18,-19.80,46.65,-46.50,34.6
2026/04/20 22:51:14.80,IMU,299.32,751.46,-572.75,0.73,-0.33,0.31,-20.40,46.50,-45.15,34.9
2026/04/20 22:51:14.90,IMU,292.97,749.51,-571.29,0.08,0.90,0.97,-19.65,46.50,-45.15,34.7
2026/04/20 22:51:15.00,IMU,296.88,745.12,-570.80,0.06,0.08,-1.27,-18.75,45.90,-45.00,34.6
2026/04/20 22:51:15.10,IMU,300.29,734.38,-577.15,0.49,-0.19,1.80,-18.45,48.00,-47.10,34.7
2026/04/20 22:51:15.21,IMU,298.83,747.07,-565.43,0.02,3.27,1.21,-19.20,44.85,-45.90,34.7
2026/04/20 22:51:15.31,IMU,306.64,748.54,-582.03,0.23,0.29,-0.96,-20.40,47.55,-44.85,34.6
2026/04/20 22:51:15.41,IMU,307.62,737.79,-577.15,0.21,1.47,-0.72,-20.85,46.20,-45.75,34.7
2026/04/20 22:51:15.51,IMU,306.64,740.23,-571.78,0.63,-0.16,-0.99,-21.15,44.85,-45.15,34.6
2026/04/20 22:51:15.61,IMU,296.39,739.75,-577.64,-0.20,1.45,1.47,-20.10,45.90,-46.80,34.7
2026/04/20 22:51:15.71,IMU,310.55,742.19,-570.31,0.30,1.30,0.61,-19.05,45.90,-45.45,34.6
2026/04/20 22:51:15.81,IMU,292.97,736.82,-566.41,-1.47,-1.32,-0.63,-20.10,45.15,-46.80,34.6
2026/04/20 22:51:15.91,IMU,296.88,750.49,-575.20,1.39,-0.54,-0.98,-18.90,47.25,-47.10,34.6
2026/04/20 22:51:16.01,IMU,306.64,749.02,-574.71,-0.21,-0.10,1.47,-20.10,45.90,-46.80,34.7
2026/04/20 22:51:16.11,IMU,304.20,740.23,-573.73,-1.11,1.44,0.77,-19.50,45.15,-45.45,34.6
2026/04/20 22:51:16.21,IMU,300.78,743.65,-577.15,0.71,-2.47,1.98,-20.40,46.05,-47.10,34.5
2026/04/20 22:51:16.31,IMU,291.02,761.72,-576.17,0.93,0.89,-1.05,-19.05,45.45,-48.00,34.6
2026/04/20 22:51:16.41,IMU,295.90,749.51,-578.61,1.16,-0.07,1.44,-19.05,45.90,-45.75,34.2
2026/04/20 22:51:16.52,IMU,325.20,748.05,-584.96,1.77,-0.57,-0.27,-19.05,46.65,-46.20,34.3
2026/04/20 22:51:16.62,IMU,293.95,742.68,-580.57,-0.48,0.95,0.30,-20.40,46.05,-46.65,34.3
2026/04/20 22:51:16.72,IMU,292.97,736.33,-578.13,-1.41,-0.36,-1.24,-19.05,46.95,-45.75,34.4
2026/04/20 22:51:16.82,IMU,322.75,750.98,-576.17,0.69,-0.79,0.37,-19.50,45.90,-46.50,34.6
2026/04/20 22:51:16.92,IMU,289.06,742.19,-576.66,0.66,1.81,1.55,-20.40,47.25,-45.90,34.4
2026/04/20 22:51:17.03,IMU,304.69,741.70,-581.54,0.19,1.55,1.25,-20.40,46.05,-46.35,34.5
2026/04/20 22:51:17.13,IMU,308.11,747.56,-578.61,0.80,0.97,-2.10,-20.40,46.05,-45.90,34.4
2026/04/20 22:51:17.23,IMU,314.45,743.16,-597.17,1.04,1.35,-3.53,-18.30,45.45,-45.45,34.1
2026/04/20 22:51:17.33,IMU,306.15,742.68,-580.08,-2.43,0.27,0.40,-20.85,47.70,-46.50,34.4
2026/04/20 22:51:17.43,IMU,310.06,750.49,-588.87,-0.01,-0.87,1.79,-19.05,46.20,-45.45,34.3
2026/04/20 22:51:17.53,IMU,291.02,727.05,-596.19,-0.16,-1.06,-1.12,-20.70,47.25,-45.90,34.4
2026/04/20 22:51:17.63,IMU,302.73,757.32,-572.75,0.34,2.18,2.89,-19.95,47.55,-46.65,34.1
2026/04/20 22:51:17.73,IMU,307.13,759.28,-589.36,2.21,0.02,2.53,-19.95,46.80,-44.85,34.0
2026/04/20 22:51:17.83,IMU,309.08,756.35,-587.89,0.49,2.82,-0.85,-20.70,46.80,-45.90,34.2
2026/04/20 22:51:17.93,IMU,289.06,740.72,-583.50,0.37,0.68,0.66,-20.85,47.40,-45.75,34.2
2026/04/20 22:51:18.04,IMU,311.52,758.79,-575.20,1.14,0.39,2.02,-19.50,46.65,-46.50,33.8
2026/04/20 22:51:18.14,IMU,293.95,743.65,-583.50,0.67,1.44,0.60,-19.95,46.05,-45.15,33.9
2026/04/20 22:51:18.24,IMU,314.94,750.00,-570.31,-1.28,0.29,-3.29,-20.55,45.15,-46.20,34.2
2026/04/20 22:51:18.34,IMU,309.57,744.14,-585.45,0.87,-1.12,-1.60,-20.85,45.45,-46.80,34.1
2026/04/20 22:51:18.44,IMU,298.83,745.61,-581.54,-1.70,-0.42,-1.74,-19.80,46.65,-45.45,34.2
2026/04/20 22:51:18.55,IMU,309.57,735.84,-585.45,1.91,1.34,2.57,-19.20,47.55,-46.65,34.2
2026/04/20 22:51:18.65,IMU,305.18,748.05,-587.89,0.69,-0.07,2.78,-19.80,45.90,-45.45,34.1
2026/04/20 22:51:18.75,IMU,306.15,751.46,-577.64,0.63,0.11,1.20,-19.80,46.95,-45.75,34.0
2026/04/20 22:51:18.85,IMU,315.92,754.88,-585.94,-1.03,-1.53,0.54,-19.80,46.65,-45.45,34.1
2026/04/20 22:51:18.95,IMU,295.41,749.51,-574.22,-0.04,1.29,-0.31,-20.40,46.05,-45.15,34.2
2026/04/20 22:51:19.05,IMU,303.71,753.91,-583.98,-0.08,-1.83,1.25,-19.65,45.75,-44.10,34.4
2026/04/20 22:51:19.15,IMU,314.45,744.14,-567.87,-0.88,0.39,-0.52,-20.10,45.90,-46.50,34.2
2026/04/20 22:51:19.25,IMU,314.45,738.28,-570.80,1.97,-2.43,0.00,-20.55,46.65,-45.75,34.2
2026/04/20 22:51:19.35,IMU,314.45,737.30,-581.05,-0.54,0.63,-2.08,-20.40,46.80,-46.35,34.3
2026/04/20 22:51:19.45,IMU,295.90,745.12,-575.20,0.53,-1.66,-1.48,-19.80,46.20,-45.75,34.2
2026/04/20 22:51:19.55,IMU,300.78,747.56,-574.71,-1.39,0.32,-0.63,-19.80,46.95,-45.75,34.0
2026/04/20 22:51:19.65,IMU,285.16,751.95,-568.36,0.21,0.60,0.86,-19.05,46.65,-45.75,34.1
2026/04/20 22:51:19.75,IMU,302.73,741.70,-573.24,0.64,0.74,-1.26,-19.80,46.65,-45.45,34.2
2026/04/20 22:51:19.85,IMU,311.04,743.16,-563.96,1.37,0.48,-1.68,-20.10,45.90,-46.20,34.3
2026/04/20 22:51:19.96,IMU,303.71,741.70,-583.01,-1.08,-0.88,3.93,-19.20,45.75,-45.15,34.4
2026/04/20 22:51:20.06,IMU,303.71,747.56,-581.05,-0.44,-0.15,-0.31,-19.80,45.90,-45.75,34.4
2026/04/20 22:51:20.16,IMU,311.04,749.02,-581.54,0.93,1.37,1.89,-19.50,47.40,-45.00,34.0
2026/04/20 22:51:20.26,IMU,303.71,735.84,-568.36,1.50,-1.08,-0.78,-20.85,46.95,-45.75,34.2
2026/04/20 22:51:20.36,IMU,304.20,747.07,-571.78,0.54,-0.11,0.47,-20.10,47.40,-46.20,34.4
2026/04/20 22:51:20.46,IMU,301.76,729.49,-568.85,-0.20,-0.61,-1.15,-18.75,46.65,-45.75,34.3
2026/04/20 22:51:20.56,IMU,304.20,740.72,-584.47,-1.94,-1.11,0.76,-20.55,47.40,-45.45,34.2
2026/04/20 22:51:20.66,IMU,311.04,747.07,-578.13,-1.27,1.31,-1.48,-20.40,44.85,-46.65,34.4
2026/04/20 22:51:20.76,IMU,316.41,741.21,-593.75,0.45,0.13,0.14,-19.05,46.20,-45.75,34.3
2026/04/20 22:51:20.87,IMU,298.83,747.07,-567.87,1.34,1.11,-0.86,-18.90,47.55,-45.90,34.4
2026/04/20 22:51:20.97,IMU,309.08,748.54,-576.66,-1.22,0.02,0.74,-19.20,46.80,-45.60,34.4
2026/04/20 22:51:21.07,IMU,292.48,738.28,-577.64,0.82,0.70,-2.77,-19.80,46.20,-46.20,34.4
2026/04/20 22:51:21.17,IMU,315.92,743.16,-581.54,-0.34,-2.47,-0.82,-19.20,45.75,-45.60,34.4
2026/04/20 22:51:21.28,IMU,303.22,748.54,-565.92,-0.63,1.05,-2.33,-20.55,45.45,-43.95,34.4
2026/04/20 22:51:21.38,IMU,304.69,730.96,-554.20,2.24,-1.12,0.78,-19.50,46.65,-46.20,34.4
2026/04/20 22:51:21.48,IMU,300.29,746.58,-559.08,-0.34,0.78,-0.06,-19.20,46.05,-47.70,34.5
2026/04/20 22:51:21.58,IMU,306.64,752.44,-576.17,0.63,1.99,0.08,-19.95,48.00,-45.60,34.5
2026/04/20 22:51:21.68,IMU,310.06,749.02,-573.24,0.13,-0.50,0.08,-19.20,46.80,-44.55,34.5
2026/04/20 22:51:21.78,IMU,306.15,734.38,-576.66,1.15,-0.93,-1.02,-24.45,43.80,-42.30,34.3
2026/04/20 22:51:21.88,IMU,310.55,748.54,-573.24,-1.63,0.56,0.89,-20.55,46.20,-46.50,34.5
2026/04/20 22:51:21.98,IMU,305.66,748.05,-570.31,-0.18,-0.69,0.06,-18.45,44.85,-45.60,34.6
2026/04/20 22:51:22.08,IMU,307.13,741.21,-572.75,-0.60,0.76,-1.25,-18.75,46.95,-46.50,34.5
2026/04/20 22:51:22.18,IMU,280.27,733.40,-554.69,-0.37,-1.21,2.46,-21.30,46.95,-45.00,34.3
2026/04/20 22:51:22.28,IMU,300.29,732.91,-572.75,0.13,0.38,1.20,-19.65,45.75,-45.60,34.5
2026/04/20 22:51:22.38,IMU,307.13,741.70,-583.50,-1.15,0.36,-1.63,-19.50,47.40,-46.50,34.6
2026/04/20 22:51:22.48,IMU,293.95,736.82,-560.06,-1.53,1.23,-0.05,-19.05,47.70,-45.75,34.5
2026/04/20 22:51:22.59,IMU,291.02,742.68,-578.61,-1.40,-0.27,1.26,-19.95,46.05,-46.65,34.6
2026/04/20 22:51:22.69,IMU,302.25,751.95,-562.99,-0.08,-0.85,-0.89,-20.40,46.05,-45.90,34.7
2026/04/20 22:51:22.79,IMU,289.06,741.21,-582.03,-0.43,-0.37,-0.53,-23.55,43.65,-41.40,34.4
2026/04/20 22:51:22.89,IMU,308.11,746.58,-569.34,-0.44,0.19,1.11,-19.20,46.05,-44.55,34.7
2026/04/20 22:51:22.99,IMU,294.43,741.21,-572.27,0.49,0.24,-1.51,-20.40,45.30,-45.60,34.7
2026/04/20 22:51:23.09,IMU,316.89,748.05,-579.59,-0.12,-1.37,0.04,-18.45,47.55,-43.80,34.9
2026/04/20 22:51:23.19,IMU,300.78,748.54,-574.22,-0.68,2.58,-0.62,-21.15,45.30,-46.35,34.7
2026/04/20 22:51:23.29,IMU,311.04,750.98,-576.17,0.81,0.14,-1.02,-20.40,46.80,-45.90,34.4
2026/04/20 22:51:23.39,IMU,300.29,737.79,-579.10,0.44,-0.99,-0.59,-20.10,46.65,-48.00,34.5
2026/04/20 22:51:23.49,IMU,281.25,736.33,-589.36,0.60,1.10,-0.08,-20.40,46.50,-45.90,34.4
2026/04/20 22:51:23.59,IMU,309.57,741.70,-581.05,-0.22,1.90,-2.73,-18.90,45.30,-45.15,34.4
2026/04/20 22:51:23.69,IMU,290.04,746.09,-581.05,-0.76,1.15,0.79,-19.95,45.75,-45.15,34.3
2026/04/20 22:51:23.81,IMU,304.20,736.82,-596.19,1.79,-1.21,-0.50,-20.55,46.65,-46.50,34.4
2026/04/20 22:51:23.91,IMU,308.11,733.40,-559.57,-3.12,0.28,1.97,-20.70,46.80,-45.60,34.3
2026/04/20 22:51:24.01,IMU,304.69,754.39,-584.47,-0.17,0.24,0.33,-20.10,48.15,-46.80,34.3
2026/04/20 22:51:24.11,IMU,309.57,743.65,-594.24,0.30,0.34,-2.20,-19.20,46.50,-47.10,34.2
2026/04/20 22:51:24.21,IMU,312.99,741.21,-567.38,4.56,-1.86,-0.10,-20.55,46.65,-46.20,34.1
2026/04/20 22:51:24.31,IMU,317.38,754.39,-572.75,-2.62,2.28,-2.08,-19.80,46.95,-45.75,34.1
2026/04/20 22:51:24.41,IMU,306.64,747.07,-598.14,-0.67,1.38,-0.45,-21.30,46.95,-46.20,33.8
2026/04/20 22:51:24.51,IMU,298.34,750.98,-595.70,0.84,-0.40,0.73,-19.50,46.95,-45.45,33.8
2026/04/20 22:51:24.61,IMU,307.62,743.65,-591.80,0.97,-1.37,0.96,-21.30,47.40,-46.20,33.6
2026/04/20 22:51:24.71,IMU,313.96,750.49,-580.08,0.33,-0.82,0.39,-20.40,46.80,-45.90,33.9
2026/04/20 22:51:24.81,IMU,304.69,744.63,-581.54,-0.96,1.66,-0.13,-20.40,44.85,-45.60,33.8
2026/04/20 22:51:24.91,IMU,312.01,753.42,-595.21,0.48,0.91,-0.33,-19.65,47.55,-44.85,33.8
2026/04/20 22:51:25.02,IMU,309.57,735.84,-596.68,-1.11,1.05,-0.04,-19.50,45.90,-45.45,33.6
2026/04/20 22:51:25.12,IMU,300.78,745.61,-570.80,0.95,2.58,-0.56,-19.80,45.45,-46.50,33.7
2026/04/20 22:51:25.22,IMU,307.13,739.26,-582.52,1.56,1.67,1.52,-21.45,45.75,-45.60,33.6
2026/04/20 22:51:25.32,IMU,312.99,748.54,-585.94,1.68,0.61,2.17,-18.90,47.25,-45.90,33.6
2026/04/20 22:51:25.42,IMU,305.18,743.65,-583.50,1.70,-0.93,1.71,-19.50,45.45,-46.50,33.3
2026/04/20 22:51:25.52,IMU,291.02,733.40,-589.84,-2.16,1.32,0.42,-19.05,46.20,-45.00,33.3
2026/04/20 22:51:25.62,IMU,306.64,761.72,-579.10,2.80,-0.94,-2.77,-20.70,45.30,-46.65,33.4
2026/04/20 22:51:25.72,IMU,299.32,750.00,-591.80,0.47,0.27,-1.36,-21.30,45.15,-46.20,33.6
2026/04/20 22:51:25.82,IMU,302.73,762.70,-592.29,0.03,-1.59,-2.64,-20.10,46.20,-45.45,33.6
2026/04/20 22:51:25.92,IMU,310.55,750.00,-589.36,0.66,1.73,-0.61,-20.40,45.30,-45.90,33.4
2026/04/20 22:51:26.02,IMU,308.11,748.05,-576.17,-1.02,0.06,0.30,-19.50,45.15,-45.75,33.3
2026/04/20 22:51:26.12,IMU,305.66,754.39,-570.80,-1.95,0.07,-1.01,-20.55,46.95,-45.45,33.6
2026/04/20 22:51:26.22,IMU,306.15,740.72,-587.40,-1.25,1.89,-0.40,-20.10,46.20,-44.25,33.6
2026/04/20 22:51:26.32,IMU,301.76,749.02,-596.68,-0.79,-0.02,0.01,-20.55,45.90,-46.50,33.6
2026/04/20 22:51:26.42,IMU,315.92,757.81,-567.87,0.67,-2.24,3.04,-18.90,45.75,-46.35,33.3
2026/04/20 22:51:26.53,IMU,303.71,741.21,-601.07,0.09,0.40,-0.13,-20.55,46.20,-46.50,33.3
2026/04/20 22:51:26.63,IMU,291.50,749.02,-578.13,1.82,0.27,-0.32,-18.90,47.25,-45.90,33.3
2026/04/20 22:51:26.73,IMU,299.80,756.84,-590.33,0.53,-1.56,0.51,-20.55,45.45,-47.25,33.3
2026/04/20 22:51:26.83,IMU,299.32,755.37,-580.08,-1.34,2.18,0.49,-20.10,46.95,-46.80,33.3
2026/04/20 22:51:26.93,IMU,311.52,754.88,-600.59,0.93,1.37,-1.68,-18.90,46.05,-45.15,33.1
2026/04/20 22:51:27.03,IMU,313.48,753.42,-588.38,-0.23,2.78,0.95,-19.95,45.75,-46.65,33.1
2026/04/20 22:51:27.13,IMU,290.53,740.72,-586.91,2.39,1.72,0.58,-19.65,46.80,-45.60,33.3
2026/04/20 22:51:27.23,IMU,321.29,746.58,-582.52,-3.52,1.66,-0.34,-20.10,45.90,-45.45,33.3
2026/04/20 22:51:27.33,IMU,314.94,749.02,-579.10,1.73,-3.89,2.40,-19.80,47.40,-45.45,33.1
2026/04/20 22:51:27.43,IMU,323.24,746.58,-579.59,-0.33,0.33,-1.76,-19.95,47.25,-47.10,33.1
2026/04/20 22:51:27.53,IMU,301.76,743.16,-595.70,0.54,1.44,0.85,-19.95,45.75,-46.65,33.0
2026/04/20 22:51:27.63,IMU,313.96,743.65,-595.21,-1.02,0.13,1.47,-20.85,46.65,-45.45,33.1
2026/04/20 22:51:27.73,IMU,324.71,751.46,-570.31,-0.89,-0.60,0.83,-21.60,47.40,-45.00,33.1
2026/04/20 22:51:27.84,IMU,294.43,750.49,-583.98,-0.44,1.35,-0.18,-20.40,45.30,-46.35,33.1
2026/04/20 22:51:27.94,IMU,304.20,752.93,-589.84,-0.71,-1.28,0.60,-20.40,46.80,-44.85,33.0
2026/04/20 22:51:28.04,IMU,317.38,759.77,-560.06,-1.64,0.00,0.56,-19.05,47.70,-46.50,33.1
2026/04/20 22:51:28.14,IMU,309.08,744.14,-581.54,0.53,2.63,1.76,-21.45,48.00,-45.60,33.1
2026/04/20 22:51:28.24,IMU,325.20,768.55,-555.18,-0.77,-4.09,2.02,-18.90,47.25,-45.90,33.0
2026/04/20 22:51:28.34,IMU,306.64,750.00,-596.68,-0.82,2.15,-3.92,-19.65,46.05,-46.35,32.8
2026/04/20 22:51:28.44,IMU,328.13,739.26,-599.12,-0.89,-2.09,0.50,-20.10,47.70,-46.80,32.8
2026/04/20 22:51:28.54,IMU,311.04,741.70,-592.29,-0.50,1.33,-2.72,-21.15,47.55,-47.10,32.9
2026/04/20 22:51:28.64,IMU,325.68,765.14,-587.40,-0.54,-0.15,-0.01,-20.10,45.90,-46.50,32.6
2026/04/20 22:51:28.74,IMU,305.18,757.81,-579.10,-1.81,-0.15,0.59,-18.90,46.50,-45.90,32.8
2026/04/20 22:51:28.84,IMU,317.38,759.77,-583.01,-1.56,1.05,2.50,-19.20,45.30,-45.60,32.6
2026/04/20 22:51:28.94,IMU,305.18,758.79,-586.91,0.47,0.14,-0.78,-19.95,46.80,-47.40,32.7
2026/04/20 22:51:29.04,IMU,333.01,743.65,-571.78,0.69,-2.79,1.94,-19.95,46.50,-46.65,32.8
2026/04/20 22:51:29.14,IMU,304.20,733.89,-570.80,-0.81,-2.09,2.88,-20.10,46.65,-46.80,32.8
2026/04/20 22:51:29.24,IMU,303.22,741.70,-592.77,-1.76,0.82,1.48,-19.65,46.80,-45.90,32.7
2026/04/20 22:51:29.35,IMU,304.20,743.16,-581.54,0.04,1.11,-1.53,-18.90,47.55,-45.60,32.6
2026/04/20 22:51:29.45,IMU,293.46,761.23,-585.45,-0.30,-1.60,0.46,-19.80,46.95,-46.80,32.7
2026/04/20 22:51:29.55,IMU,317.38,728.03,-583.50,-1.66,0.85,-2.52,-19.80,46.20,-46.20,32.7
2026/04/20 22:51:29.65,IMU,324.22,759.77,-576.17,1.02,0.53,3.05,-19.05,46.95,-46.20,32.6
2026/04/20 22:51:29.75,IMU,309.57,746.09,-573.24,0.73,-0.15,1.82,-18.90,46.80,-45.15,32.7
2026/04/20 22:51:29.85,IMU,303.22,744.63,-578.61,-2.26,1.74,0.10,-20.85,46.20,-46.50,32.6
2026/04/20 22:51:29.95,IMU,313.48,756.84,-577.64,0.24,0.92,1.47,-20.40,46.05,-44.85,32.6
2026/04/20 22:51:30.05,IMU,306.64,739.75,-588.38,-2.16,-0.63,0.97,-20.10,46.20,-46.50,32.7
2026/04/20 22:51:30.15,IMU,311.52,740.72,-592.29,1.56,-0.71,1.12,-20.40,46.80,-46.65,32.6
2026/04/20 22:51:30.25,IMU,316.41,746.58,-587.40,-0.34,3.68,2.99,-21.15,47.55,-47.70,32.6
2026/04/20 22:51:30.35,IMU,316.41,742.68,-608.40,1.38,-2.24,1.32,-19.80,46.20,-46.50,32.4
2026/04/20 22:51:30.45,IMU,297.36,747.56,-591.80,0.89,2.76,0.23,-20.10,46.95,-46.50,32.6
2026/04/20 22:51:30.55,IMU,313.48,752.93,-581.54,-0.51,-0.27,1.34,-19.65,46.80,-47.10,32.3
2026/04/20 22:51:30.65,IMU,304.69,743.16,-588.87,1.75,0.32,-1.02,-20.70,46.80,-47.10,32.3
2026/04/20 22:51:30.75,IMU,300.78,745.12,-583.98,-0.94,-1.24,0.05,-20.70,45.75,-45.60,32.2
2026/04/20 22:51:30.86,IMU,329.59,756.84,-582.03,-0.47,1.06,2.18,-20.70,45.30,-46.35,32.4
2026/04/20 22:51:30.97,IMU,314.45,751.46,-584.47,0.46,1.36,0.72,-24.00,44.55,-43.05,32.4
2026/04/20 22:51:31.07,IMU,310.06,755.37,-576.66,0.74,1.26,2.11,-19.95,46.05,-45.15,32.6
2026/04/20 22:51:31.17,IMU,318.36,748.54,-587.89,0.02,-2.22,-0.63,-20.10,46.95,-46.50,32.4
2026/04/20 22:51:31.27,IMU,314.45,737.30,-581.54,0.53,0.05,1.72,-19.80,46.65,-46.50,32.4
2026/04/20 22:51:31.37,IMU,311.04,742.19,-579.59,0.21,1.38,1.55,-20.40,46.05,-46.35,32.3
2026/04/20 22:51:31.47,IMU,320.31,733.40,-573.73,-0.39,-1.01,-0.27,-19.05,46.65,-48.00,32.6
2026/04/20 22:51:31.57,IMU,306.64,752.44,-582.52,0.62,0.63,2.40,-19.65,47.25,-45.60,32.4
2026/04/20 22:51:31.67,IMU,303.71,760.25,-585.45,-1.50,1.81,1.23,-20.40,46.50,-46.65,32.1
2026/04/20 22:51:31.77,IMU,323.24,743.16,-579.10,-0.56,-0.35,-2.16,-19.50,47.70,-46.50,32.2
2026/04/20 22:51:31.87,IMU,308.11,759.77,-589.84,0.13,1.70,-0.84,-20.55,46.65,-46.20,32.4
2026/04/20 22:51:31.97,IMU,316.41,748.54,-598.63,-0.56,0.37,-0.72,-19.50,46.95,-46.80,32.4
2026/04/20 22:51:32.07,IMU,309.57,752.44,-583.01,1.71,-1.79,-2.36,-19.05,46.65,-47.25,32.1
2026/04/20 22:51:32.17,IMU,316.89,739.75,-587.89,-0.69,0.47,0.71,-20.10,45.90,-47.25,32.4
2026/04/20 22:51:32.27,IMU,307.62,747.56,-584.96,1.64,2.16,1.64,-21.15,46.50,-46.35,32.4
2026/04/20 22:51:32.38,IMU,317.87,749.02,-572.27,0.53,0.28,1.30,-19.95,47.25,-47.40,32.0
2026/04/20 22:51:32.48,IMU,320.31,739.75,-568.36,-0.56,-3.50,-1.66,-20.55,46.65,-46.50,31.9
2026/04/20 22:51:32.58,IMU,308.59,740.72,-577.15,-2.66,2.31,-0.65,-19.05,45.90,-46.20,32.2
2026/04/20 22:51:32.68,IMU,307.62,744.63,-588.38,0.92,-0.48,-0.09,-19.95,48.00,-47.10,32.1
2026/04/20 22:51:32.78,IMU,323.24,746.58,-568.85,-0.73,-1.06,0.19,-20.70,47.25,-46.35,32.1
2026/04/20 22:51:32.88,IMU,288.57,747.56,-574.22,1.69,2.45,-2.06,-19.05,45.90,-46.50,32.2
2026/04/20 22:51:32.98,IMU,296.39,747.56,-570.80,1.38,-1.05,1.92,-19.95,46.80,-45.60,32.2
2026/04/20 22:51:33.08,IMU,303.22,741.70,-583.98,-0.06,1.64,-0.25,-19.95,46.50,-45.15,32.6
2026/04/20 22:51:33.18,IMU,320.31,743.16,-579.59,0.56,0.43,-0.31,-21.30,47.40,-45.45,32.2
2026/04/20 22:51:33.28,IMU,309.08,751.95,-581.54,-1.60,-1.02,-0.85,-20.10,45.45,-45.45,32.3
2026/04/20 22:51:33.38,IMU,298.83,753.91,-571.29,-2.07,0.98,-0.34,-19.80,46.20,-46.50,31.9
2026/04/20 22:51:33.48,IMU,299.32,748.54,-568.85,1.00,0.72,-1.42,-20.10,46.20,-47.25,32.1
2026/04/20 22:51:33.58,IMU,305.66,739.75,-589.84,-0.20,0.41,1.05,-18.45,46.05,-47.10,31.9
2026/04/20 22:51:33.68,IMU,312.50,748.05,-587.89,1.60,0.23,0.59,-20.10,45.15,-46.50,32.2
2026/04/20 22:51:33.78,IMU,303.71,748.54,-580.08,0.95,-0.25,-1.93,-21.30,47.40,-45.00,32.1
2026/04/20 22:51:33.88,IMU,313.96,746.09,-569.34,-0.92,1.50,-1.43,-19.65,48.00,-46.65,32.2
2026/04/20 22:51:33.99,IMU,320.31,749.51,-570.31,0.93,0.60,2.32,-20.40,46.05,-46.35,32.4
2026/04/20 22:51:34.09,IMU,313.48,749.51,-577.64,-0.56,1.66,-0.36,-18.45,47.25,-45.60,32.3
2026/04/20 22:51:34.19,IMU,319.34,746.09,-579.59,-0.82,1.91,-1.95,-18.45,45.75,-45.60,32.1
2026/04/20 22:51:34.29,IMU,312.99,741.21,-567.87,-1.75,2.68,-1.07,-21.15,46.05,-45.15,32.0
2026/04/20 22:51:34.39,IMU,308.11,745.61,-577.64,-1.65,-0.32,1.92,-18.90,48.30,-45.90,32.2
2026/04/20 22:51:34.49,IMU,316.41,736.82,-574.22,-0.41,0.24,-0.54,-18.90,46.50,-45.60,32.2
2026/04/20 22:51:34.59,IMU,310.06,751.95,-582.03,2.11,0.11,-2.16,-19.65,45.30,-46.65,31.9
2026/04/20 22:51:34.69,IMU,317.38,754.88,-570.80,-1.21,-0.79,-0.91,-20.40,47.55,-45.90,32.0
2026/04/20 22:51:34.79,IMU,308.11,745.12,-573.24,0.94,0.34,1.31,-20.40,45.30,-45.60,32.3
2026/04/20 22:51:34.89,IMU,315.92,738.28,-581.05,0.41,0.71,-2.24,-18.75,46.20,-46.20,32.4
2026/04/20 22:51:34.99,IMU,308.11,743.16,-573.73,-1.23,-0.89,0.48,-18.75,47.70,-45.75,32.2
2026/04/20 22:51:35.09,IMU,309.57,746.58,-572.27,0.28,-0.47,1.47,-19.80,46.20,-47.25,32.2
2026/04/20 22:51:35.19,IMU,312.01,741.70,-575.68,0.04,0.11,1.01,-18.90,45.30,-46.65,32.1
2026/04/20 22:51:35.29,IMU,315.92,746.58,-573.73,0.27,-0.98,0.04,-19.50,47.40,-46.80,32.3
2026/04/20 22:51:35.39,IMU,317.38,734.86,-583.98,0.50,0.92,0.55,-19.65,47.25,-46.35,32.2
2026/04/20 22:51:35.49,IMU,293.46,744.63,-587.40,0.81,0.69,0.72,-21.45,45.75,-46.35,32.4
2026/04/20 22:51:35.60,IMU,304.69,747.07,-582.03,0.18,-2.11,1.21,-20.70,44.85,-46.35,32.3
2026/04/20 22:51:35.70,IMU,302.73,740.23,-562.99,-0.66,-0.75,0.63,-19.95,48.00,-45.90,32.3
2026/04/20 22:51:35.80,IMU,304.20,744.14,-575.68,-0.37,-0.21,-1.95,-19.80,46.65,-46.20,32.2
2026/04/20 22:51:35.90,IMU,318.36,755.37,-580.57,-0.85,-2.26,2.65,-19.95,45.75,-46.35,32.1
2026/04/20 22:51:36.00,IMU,312.01,747.07,-574.71,0.08,0.02,0.44,-19.20,46.05,-45.90,32.2
2026/04/20 22:51:36.10,IMU,318.36,747.07,-580.08,1.00,0.37,-1.46,-20.10,46.95,-47.55,32.2
