Timestamp,Sensor,AccX,AccY,AccZ,GyrX,GyrY,GyrZ,MagX,MagY,MagZ,Temp
2026/04/13 15:03:58.00,IMU,-85.94,-12.21,-1013.18,-0.70,-0.24,1.02,-51.00,16.65,54.00,28.6
2026/04/13 15:03:58.10,IMU,-77.64,-10.74,-1020.02,0.11,-0.20,1.79,-51.30,16.80,53.85,28.6
2026/04/13 15:03:58.20,IMU,-75.20,-22.46,-1011.72,0.40,1.47,2.15,-50.10,17.25,52.80,28.3
2026/04/13 15:03:58.30,IMU,-86.91,-38.57,-1012.70,0.11,1.81,-0.97,-51.00,17.70,54.45,28.4
2026/04/13 15:03:58.40,IMU,-82.52,-27.34,-1013.18,0.15,-0.60,-1.56,-51.45,16.95,53.70,28.6
2026/04/13 15:03:58.50,IMU,-83.01,-23.44,-1023.93,0.28,0.22,-0.49,-51.75,16.20,53.70,28.5
2026/04/13 15:03:58.60,IMU,-71.29,-10.74,-1013.67,-0.56,-1.95,-2.47,-51.00,17.40,53.70,28.0
2026/04/13 15:03:58.70,IMU,-82.03,-19.04,-1017.09,0.58,2.03,0.59,-50.85,16.80,53.10,28.5
2026/04/13 15:03:58.80,IMU,-78.61,-31.74,-1009.77,0.66,-2.34,-1.05,-51.00,16.95,53.40,28.2
2026/04/13 15:03:58.90,IMU,-73.24,-29.30,-1020.02,-1.67,1.84,1.31,-50.10,18.00,52.80,28.4
2026/04/13 15:03:59.00,IMU,-75.68,-37.11,-1014.65,-1.08,-0.60,0.82,-51.00,17.70,52.65,28.4
2026/04/13 15:03:59.11,IMU,-75.20,-13.67,-1005.86,-0.40,0.34,1.05,-52.80,16.80,53.85,28.4
2026/04/13 15:03:59.21,IMU,-78.12,-22.95,-1011.23,-0.66,0.39,-1.14,-52.05,18.30,54.90,28.8
2026/04/13 15:03:59.31,IMU,-77.15,-27.34,-1009.77,-0.63,-1.54,-2.45,-51.30,18.00,53.85,28.6
2026/04/13 15:03:59.41,IMU,-80.57,-30.76,-1015.14,0.29,0.28,-1.16,-51.60,16.50,53.55,28.4
2026/04/13 15:03:59.51,IMU,-75.68,-21.00,-1016.11,-1.52,1.31,1.66,-51.00,18.60,53.40,28.2
2026/04/13 15:03:59.61,IMU,-84.96,-36.13,-1021.48,-0.74,1.42,-1.11,-50.85,16.05,54.90,28.4
2026/04/13 15:03:59.71,IMU,-74.71,-25.39,-1012.21,-1.03,0.83,-1.47,-50.40,18.15,52.65,28.7
2026/04/13 15:03:59.81,IMU,-79.59,-29.30,-1013.67,0.10,-0.74,-1.99,-51.30,17.55,52.05,28.6
2026/04/13 15:03:59.91,IMU,-83.50,-10.74,-1023.44,1.01,-0.06,-1.27,-50.55,17.55,52.50,28.4
2026/04/13 15:04:00.01,IMU,-73.73,-15.63,-1014.65,-0.96,0.25,0.88,-52.80,18.75,52.50,28.5
2026/04/13 15:04:00.11,IMU,-75.20,-18.07,-996.09,-0.92,1.72,1.84,-51.60,18.00,52.05,28.6
2026/04/13 15:04:00.21,IMU,-71.78,-27.34,-1018.07,0.86,-0.40,1.64,-50.10,18.75,52.80,28.4
2026/04/13 15:04:00.31,IMU,-80.08,-18.07,-1009.28,-2.20,0.81,1.84,-51.45,16.95,51.90,28.4
2026/04/13 15:04:00.41,IMU,-49.80,-36.62,-1020.51,0.35,1.59,-3.27,-50.70,16.65,52.20,28.6
2026/04/13 15:04:00.51,IMU,-69.34,-23.93,-1014.16,-1.51,2.51,-1.96,-50.70,16.65,52.95,28.7
2026/04/13 15:04:00.61,IMU,-84.47,-24.90,-1015.14,0.15,-0.83,0.73,-49.35,17.55,53.10,28.6
2026/04/13 15:04:00.71,IMU,-67.38,-18.55,-1016.11,0.13,1.37,-0.46,-51.45,17.40,53.40,28.4
2026/04/13 15:04:00.81,IMU,-87.89,-25.88,-999.02,0.26,0.29,-1.11,-49.80,17.25,52.05,28.4
2026/04/13 15:04:00.91,IMU,-94.24,-35.16,-1166.50,-0.50,-1.88,-1.47,-51.00,18.15,53.40,28.5
2026/04/13 15:04:01.01,IMU,-80.57,-34.67,-1029.79,0.02,0.76,-1.23,-51.30,17.55,53.85,28.6
2026/04/13 15:04:01.11,IMU,-85.45,-23.44,-1026.86,0.40,1.48,-3.19,-51.30,17.55,54.30,28.3
2026/04/13 15:04:01.21,IMU,-77.64,-31.25,-1022.95,0.49,0.74,-0.47,-51.60,17.25,52.80,28.8
2026/04/13 15:04:01.31,IMU,-72.75,-22.46,-1021.97,0.39,-0.08,-0.85,-51.00,17.70,52.95,28.4
2026/04/13 15:04:01.41,IMU,-82.03,-20.02,-1016.60,0.25,3.21,-1.25,-50.70,18.15,51.90,28.4
2026/04/13 15:04:01.51,IMU,-66.89,-16.60,-1017.09,1.14,1.17,-1.65,-49.80,19.05,51.75,28.6
2026/04/13 15:04:01.61,IMU,-80.08,-28.81,-1023.44,0.73,-1.11,-0.64,-51.60,16.80,51.75,28.4
2026/04/13 15:04:01.71,IMU,-74.22,-29.30,-1026.86,-1.14,-1.41,-1.05,-50.85,18.30,52.05,28.5
2026/04/13 15:04:01.82,IMU,-85.45,-20.02,-1043.46,0.09,1.04,0.12,-50.40,18.15,51.60,28.6
2026/04/13 15:04:01.92,IMU,-67.38,-23.44,-1009.28,-0.49,-0.01,-0.76,-51.30,18.00,50.70,28.2
2026/04/13 15:04:02.02,IMU,-73.73,-22.46,-1031.25,1.77,3.42,0.22,-49.35,16.80,51.00,28.6
2026/04/13 15:04:02.12,IMU,-64.45,-34.18,-1016.11,-1.89,1.92,-2.67,-50.40,17.40,51.60,28.4
2026/04/13 15:04:02.22,IMU,-73.24,-17.09,-1019.04,1.08,-1.85,1.10,-49.80,16.80,51.75,28.6
2026/04/13 15:04:02.32,IMU,-79.10,-26.86,-1012.21,1.94,0.95,1.58,-50.10,19.50,51.30,28.4
2026/04/13 15:04:02.42,IMU,-71.29,-1.46,-999.51,-0.37,2.75,1.04,-50.10,17.55,52.05,28.6
2026/04/13 15:04:02.52,IMU,-63.48,-16.11,-1017.58,-1.24,0.53,3.15,-49.80,16.80,51.30,28.1
2026/04/13 15:04:02.62,IMU,-83.01,-15.63,-1036.62,2.14,1.35,0.73,-49.95,17.70,49.80,28.6
2026/04/13 15:04:02.72,IMU,-67.87,-19.53,-1003.42,0.98,-1.62,-1.21,-48.30,16.80,49.20,28.4
2026/04/13 15:04:02.82,IMU,-79.10,-24.90,-1014.16,-0.79,-1.40,-3.27,-48.75,17.55,49.50,28.6
2026/04/13 15:04:02.92,IMU,-62.99,-22.95,-999.51,-1.29,0.14,0.17,-49.65,17.70,50.40,28.7
2026/04/13 15:04:03.02,IMU,-90.82,-15.63,-1016.60,0.84,0.05,-0.66,-48.90,17.40,51.15,28.3
2026/04/13 15:04:03.12,IMU,-73.73,-24.90,-1014.16,0.11,2.19,1.56,-49.80,16.50,52.05,28.6
2026/04/13 15:04:03.22,IMU,-65.92,-16.11,-1012.70,0.73,-1.15,-2.51,-50.10,16.05,50.70,28.6
2026/04/13 15:04:03.32,IMU,-93.26,-30.27,-1022.95,0.56,1.30,0.79,-49.95,17.70,51.60,28.6
2026/04/13 15:04:03.42,IMU,-64.45,-33.20,-1016.60,-1.37,-3.47,-1.58,-50.70,16.95,50.85,28.3
2026/04/13 15:04:03.52,IMU,-76.17,-23.44,-1012.70,-1.31,0.90,1.79,-49.65,16.95,52.20,28.6
2026/04/13 15:04:03.62,IMU,-81.05,-30.76,-1007.81,-0.43,0.59,-0.12,-51.30,16.80,51.00,28.6
2026/04/13 15:04:03.72,IMU,-71.29,-23.44,-1067.38,1.08,-2.27,-1.92,-49.95,16.95,50.40,28.5
2026/04/13 15:04:03.82,IMU,-80.08,-24.90,-1031.25,0.69,-0.97,0.83,-51.60,18.00,52.50,28.7
2026/04/13 15:04:03.92,IMU,-62.99,-25.39,-1022.95,0.56,1.91,-1.40,-50.10,19.05,51.30,28.4
2026/04/13 15:04:04.02,IMU,-78.61,-27.83,-987.79,1.62,-0.12,-0.98,-48.75,18.00,49.50,28.8
2026/04/13 15:04:04.12,IMU,-89.36,-27.83,-1019.04,1.24,1.05,0.69,-54.75,16.65,53.40,28.4
2026/04/13 15:04:04.22,IMU,-80.08,-26.86,-1011.72,-0.53,1.18,2.49,-49.95,18.60,50.85,28.4
2026/04/13 15:04:04.32,IMU,-93.26,-14.16,-1017.09,0.10,0.83,0.50,-50.70,16.65,51.60,28.2
2026/04/13 15:04:04.42,IMU,-78.61,-31.25,-1008.30,-0.07,3.95,0.82,-50.85,19.05,50.70,28.4
2026/04/13 15:04:04.53,IMU,-77.64,-28.32,-1030.27,3.10,0.35,-1.16,-49.35,17.55,51.00,28.3
2026/04/13 15:04:04.63,IMU,-77.15,-36.62,-1004.88,0.67,0.55,-0.88,-50.40,18.15,49.35,28.6
2026/04/13 15:04:04.73,IMU,-63.48,-24.90,-1003.42,-0.20,1.40,0.97,-50.10,17.55,50.25,28.4
2026/04/13 15:04:04.83,IMU,-83.50,-26.86,-1041.50,0.85,-1.66,-0.08,-49.95,18.15,51.15,28.6
2026/04/13 15:04:04.93,IMU,-59.57,-42.48,-1017.58,-0.87,2.90,-0.63,-51.45,18.15,51.90,28.2
2026/04/13 15:04:05.03,IMU,-69.82,-21.97,-1024.90,-0.45,1.68,-0.35,-50.10,17.25,49.95,28.5
2026/04/13 15:04:05.13,IMU,-81.05,-27.34,-1018.07,0.74,-0.95,2.26,-52.50,16.20,53.40,28.6
2026/04/13 15:04:05.23,IMU,-81.54,-23.44,-1011.72,-0.10,0.05,-2.66,-49.95,19.35,50.85,28.1
2026/04/13 15:04:05.33,IMU,-71.29,-36.62,-1004.88,-0.64,-2.32,-0.83,-50.10,17.55,48.45,28.3
2026/04/13 15:04:05.43,IMU,-64.94,-33.69,-1014.65,0.37,0.09,-2.38,-49.95,17.40,47.25,28.5
2026/04/13 15:04:05.53,IMU,-65.92,-30.27,-1009.28,0.68,1.96,3.09,-49.35,17.25,46.65,28.4
2026/04/13 15:04:05.63,IMU,-59.57,-16.11,-1015.14,-1.27,-0.11,1.78,-49.35,17.25,44.85,28.1
2026/04/13 15:04:05.73,IMU,-67.38,-21.97,-1025.39,1.81,0.09,2.31,-49.05,18.75,46.35,28.4
2026/04/13 15:04:05.83,IMU,-62.50,-19.53,-1018.55,-0.98,0.83,-0.96,-49.65,17.70,45.75,28.7
2026/04/13 15:04:05.93,IMU,-63.96,-15.63,-1012.70,-0.15,2.00,1.89,-49.35,18.30,44.85,28.5
2026/04/13 15:04:06.03,IMU,-76.17,-21.48,-1002.44,-1.21,-0.05,-1.21,-49.80,17.25,45.90,28.6
2026/04/13 15:04:06.14,IMU,-72.75,-20.51,-1014.16,-0.29,1.11,-0.35,-52.05,15.30,49.50,28.4
2026/04/13 15:04:06.24,IMU,-70.31,-14.16,-1003.91,-1.00,-0.84,-3.39,-48.45,18.60,44.70,28.6
2026/04/13 15:04:06.34,IMU,-63.96,-17.58,-1014.65,0.21,0.98,0.56,-48.75,18.00,42.75,28.4
2026/04/13 15:04:06.44,IMU,-59.08,-28.81,-1013.67,0.32,1.00,0.71,-48.45,18.60,42.45,28.5
2026/04/13 15:04:06.54,IMU,-77.64,-16.11,-1012.70,0.86,1.40,-1.11,-49.80,17.55,45.15,28.4
2026/04/13 15:04:06.64,IMU,-75.68,-13.18,-1022.46,-1.34,-1.20,0.05,-49.65,19.65,42.45,28.4
2026/04/13 15:04:06.74,IMU,-68.85,-20.51,-1021.97,-0.76,0.89,0.34,-49.05,18.75,45.60,28.4
2026/04/13 15:04:06.84,IMU,-79.59,-22.46,-1006.84,1.06,-1.69,-3.61,-48.30,18.75,45.60,28.3
2026/04/13 15:04:06.94,IMU,-62.50,-16.60,-1010.74,0.12,-0.11,-0.49,-48.75,18.30,44.85,28.5
2026/04/13 15:04:07.05,IMU,-58.59,-26.37,-1015.14,1.17,-1.63,-3.66,-49.05,18.30,45.60,28.4
2026/04/13 15:04:07.15,IMU,-70.31,-18.55,-1019.53,0.47,0.85,-1.34,-50.40,18.90,44.25,28.4
2026/04/13 15:04:07.25,IMU,-63.48,-8.30,-1012.21,-0.79,-0.53,-0.55,-49.35,18.30,45.90,28.6
2026/04/13 15:04:07.35,IMU,-70.80,-24.41,-1011.72,0.29,-1.07,0.89,-47.55,19.80,45.90,28.4
2026/04/13 15:04:07.45,IMU,-69.82,-13.67,-1015.14,0.11,0.03,-0.50,-48.90,18.15,44.25,28.6
2026/04/13 15:04:07.55,IMU,-65.43,-27.34,-1016.60,-0.60,-0.11,1.07,-49.35,18.30,44.85,28.6
2026/04/13 15:04:07.65,IMU,-65.92,-25.39,-1006.84,1.39,0.74,0.37,-49.65,18.60,43.95,28.4
2026/04/13 15:04:07.75,IMU,-70.31,-27.34,-1018.07,-0.23,2.62,1.24,-49.80,19.05,44.55,28.4
2026/04/13 15:04:07.85,IMU,-64.94,-22.46,-1015.63,-0.10,0.85,-3.06,-49.95,17.70,42.90,28.5
2026/04/13 15:04:07.95,IMU,-68.36,-18.55,-1017.09,-0.75,2.17,1.58,-48.45,17.40,45.00,28.6
2026/04/13 15:04:08.05,IMU,-68.85,-26.37,-1005.37,0.58,0.95,0.67,-48.75,18.30,44.10,28.2
2026/04/13 15:04:08.15,IMU,-62.50,-22.46,-1013.18,-0.63,1.17,-0.22,-48.90,17.70,44.70,28.6
2026/04/13 15:04:08.25,IMU,-70.80,-19.04,-1018.07,-0.49,-1.90,0.17,-50.40,17.40,44.25,28.6
2026/04/13 15:04:08.35,IMU,-72.27,-27.83,-1020.02,-0.21,-0.44,1.02,-48.15,18.15,44.70,28.6
2026/04/13 15:04:08.45,IMU,-59.08,-35.64,-1015.63,0.14,-1.74,1.24,-49.95,18.60,45.00,28.4
2026/04/13 15:04:08.55,IMU,-74.22,-31.74,-1010.74,0.25,-0.19,-0.58,-48.90,18.15,43.95,28.5
2026/04/13 15:04:08.65,IMU,-59.08,-21.00,-1019.04,2.10,-1.21,0.55,-48.90,17.40,45.45,28.4
2026/04/13 15:04:08.75,IMU,-69.82,-21.97,-1014.65,1.52,1.37,0.40,-49.05,18.30,45.90,28.4
2026/04/13 15:04:08.85,IMU,-61.04,-15.63,-1023.93,-1.19,0.62,0.02,-49.20,17.40,45.45,28.5
2026/04/13 15:04:08.95,IMU,-76.17,-28.81,-1015.63,1.31,-0.22,0.00,-50.10,19.05,45.15,28.4
2026/04/13 15:04:09.05,IMU,-64.45,-26.37,-1014.65,0.31,-0.89,0.82,-47.70,17.70,45.75,28.7
2026/04/13 15:04:09.15,IMU,-69.82,-16.60,-1021.00,0.47,0.02,-0.65,-49.65,17.40,45.00,28.4
2026/04/13 15:04:09.25,IMU,-70.31,-22.46,-1007.32,0.34,1.35,-0.69,-49.20,18.90,45.75,28.6
2026/04/13 15:04:09.35,IMU,-67.87,-25.88,-1011.72,1.40,1.69,-0.46,-48.15,16.20,45.75,28.6
2026/04/13 15:04:09.45,IMU,-77.15,-22.46,-1017.58,0.26,-0.09,-1.82,-50.85,18.75,45.90,28.6
2026/04/13 15:04:09.55,IMU,-62.50,-16.11,-1020.02,1.15,0.50,0.79,-49.05,18.75,47.10,28.5
2026/04/13 15:04:09.65,IMU,-64.45,-31.74,-1015.14,-0.60,-0.50,-0.14,-49.95,17.70,45.75,28.4
2026/04/13 15:04:09.76,IMU,-72.75,-29.79,-1016.60,1.17,2.79,2.85,-48.90,16.65,43.95,28.4
2026/04/13 15:04:09.86,IMU,-74.71,-21.48,-1015.63,1.22,-1.02,0.50,-49.65,18.15,45.45,28.5
2026/04/13 15:04:09.96,IMU,-70.80,-26.37,-1022.46,-0.75,1.79,-0.23,-48.00,18.00,45.15,28.3
2026/04/13 15:04:10.06,IMU,-55.66,-26.86,-1021.48,-0.03,1.98,1.95,-49.35,17.55,46.65,28.6
2026/04/13 15:04:10.16,IMU,-67.38,-32.23,-1017.09,0.69,-0.41,-1.21,-48.75,18.30,45.90,28.4
2026/04/13 15:04:10.26,IMU,-71.29,-25.39,-1015.63,1.34,-0.81,2.27,-49.95,16.95,44.70,28.3
2026/04/13 15:04:10.36,IMU,-62.01,-21.97,-1013.67,0.97,0.02,-1.57,-49.95,16.95,45.00,28.6
2026/04/13 15:04:10.46,IMU,-65.92,-9.77,-1018.07,-0.22,0.75,-0.27,-49.95,17.40,45.45,28.4
2026/04/13 15:04:10.56,IMU,-64.94,-17.09,-1016.60,-0.89,-1.53,-1.47,-49.35,17.25,43.80,28.6
2026/04/13 15:04:10.66,IMU,-67.87,-31.25,-1015.63,0.53,1.37,-1.29,-49.65,17.70,45.00,28.4
2026/04/13 15:04:10.76,IMU,-56.64,-19.04,-1014.65,0.24,2.01,-0.36,-48.90,18.15,45.75,28.2
2026/04/13 15:04:10.86,IMU,-71.78,-23.93,-1023.44,-0.05,1.17,0.21,-50.40,18.60,43.95,28.1
2026/04/13 15:04:10.96,IMU,-66.89,-14.65,-1010.25,-0.32,1.77,-2.04,-49.05,17.25,44.85,28.5
2026/04/13 15:04:11.06,IMU,-68.36,-21.48,-1016.11,-0.60,2.13,0.02,-49.20,18.60,44.70,28.4
2026/04/13 15:04:11.16,IMU,-64.45,-27.83,-1021.48,-1.55,1.71,-0.67,-49.80,17.55,43.35,28.6
2026/04/13 15:04:11.26,IMU,-62.01,-17.09,-1016.11,0.11,-0.26,0.82,-50.55,18.75,46.65,28.4
2026/04/13 15:04:11.36,IMU,-68.85,-30.76,-1019.04,0.61,-0.21,0.36,-49.65,17.70,45.00,28.4
2026/04/13 15:04:11.46,IMU,-79.59,-35.64,-1025.88,-0.78,1.59,-0.22,-49.65,18.60,45.45,28.7
2026/04/13 15:04:11.56,IMU,-66.41,-23.93,-1012.70,1.21,0.87,-1.30,-49.95,18.60,44.25,28.4
2026/04/13 15:04:11.66,IMU,-77.64,-22.95,-1010.25,2.45,0.54,-4.56,-48.45,16.20,45.00,28.6
2026/04/13 15:04:11.76,IMU,-53.22,-16.60,-1013.18,-0.50,0.56,0.44,-49.05,18.30,44.55,28.6
2026/04/13 15:04:11.86,IMU,-68.85,-22.95,-1014.16,0.05,1.18,-0.45,-48.00,17.25,44.55,28.5
2026/04/13 15:04:11.96,IMU,-73.24,-30.76,-1008.30,-0.53,-1.64,3.21,-48.30,19.50,44.85,28.3
2026/04/13 15:04:12.06,IMU,-54.69,-30.76,-1010.25,-1.64,0.50,-2.05,-49.20,17.70,42.90,28.6
2026/04/13 15:04:12.16,IMU,-60.06,-12.70,-1020.02,-0.45,-0.31,-0.46,-49.20,17.70,44.70,28.5
2026/04/13 15:04:12.26,IMU,-60.55,-18.55,-1001.46,0.73,1.36,0.84,-49.20,18.60,42.90,28.5
2026/04/13 15:04:12.37,IMU,-66.89,-32.71,-1018.07,0.42,1.66,-0.81,-49.05,17.55,43.35,28.6
2026/04/13 15:04:12.47,IMU,-77.15,-26.37,-1000.49,1.97,0.98,-0.90,-49.20,18.90,44.70,28.4
2026/04/13 15:04:12.57,IMU,-67.38,-18.55,-1005.86,-1.62,0.88,-0.94,-48.30,17.25,43.35,28.0
2026/04/13 15:04:12.67,IMU,-68.85,-30.76,-1010.25,-1.47,2.62,2.75,-49.65,18.60,43.65,28.4
2026/04/13 15:04:12.77,IMU,-70.80,-43.95,-1021.48,-0.65,-0.28,0.63,-49.95,18.60,44.25,28.4
2026/04/13 15:04:12.87,IMU,-64.45,-32.71,-1045.41,1.22,0.70,-0.17,-50.55,16.80,44.10,28.4
2026/04/13 15:04:12.97,IMU,-80.08,-31.74,-1018.07,-1.17,0.73,-4.14,-50.10,17.25,44.55,28.5
2026/04/13 15:04:13.07,IMU,-62.99,-28.32,-1013.67,0.44,2.09,-1.23,-48.75,17.55,44.85,28.5
2026/04/13 15:04:13.17,IMU,-67.87,-24.41,-1020.51,0.29,-0.68,-0.38,-50.10,17.55,45.15,28.4
2026/04/13 15:04:13.27,IMU,-70.80,-27.34,-1022.95,0.02,2.73,-0.58,-50.10,18.30,45.60,28.3
2026/04/13 15:04:13.37,IMU,-65.92,-26.37,-1018.07,-1.00,0.02,-0.50,-49.05,17.25,43.35,28.4
2026/04/13 15:04:13.47,IMU,-65.92,-15.14,-1011.72,-0.63,-0.09,0.02,-49.65,18.60,42.90,28.4
2026/04/13 15:04:13.57,IMU,-55.18,-10.74,-1018.55,-1.11,1.59,0.24,-49.05,17.55,43.80,28.5
2026/04/13 15:04:13.67,IMU,-58.59,-32.71,-1012.21,-0.97,-0.90,0.40,-49.80,18.75,44.85,28.6
2026/04/13 15:04:13.77,IMU,-63.48,-27.34,-1021.00,-1.07,0.09,0.40,-50.40,18.90,43.95,28.5
2026/04/13 15:04:13.87,IMU,-64.94,-29.30,-1022.95,-1.80,0.84,1.37,-50.85,17.25,44.10,28.4
2026/04/13 15:04:13.97,IMU,-69.34,-39.06,-1020.02,-0.18,-0.44,-1.40,-48.15,18.15,44.70,28.6
2026/04/13 15:04:14.07,IMU,-62.99,-23.93,-1025.39,-0.05,0.08,-2.07,-48.30,18.00,43.05,28.5
2026/04/13 15:04:14.17,IMU,-55.18,-16.60,-1000.49,0.89,0.09,-0.23,-50.40,18.15,43.65,28.4
2026/04/13 15:04:14.27,IMU,-61.52,-22.95,-1011.23,0.23,-0.30,1.60,-51.30,18.75,47.70,28.6
2026/04/13 15:04:14.37,IMU,-81.54,-13.18,-1017.58,0.92,2.46,-0.05,-50.55,18.30,44.55,28.7
2026/04/13 15:04:14.47,IMU,-49.32,-36.13,-1012.21,1.34,0.39,3.12,-48.90,17.70,45.00,28.4
2026/04/13 15:04:14.57,IMU,-78.12,-26.86,-1008.30,-0.06,0.47,0.41,-49.20,18.60,45.45,28.6
2026/04/13 15:04:14.67,IMU,-63.96,-32.23,-1014.16,0.85,-1.77,-2.97,-48.90,16.65,43.65,28.5
2026/04/13 15:04:14.77,IMU,-68.36,-19.04,-1015.14,-0.01,-1.70,-1.76,-49.20,18.90,44.70,28.3
2026/04/13 15:04:14.87,IMU,-70.80,-33.69,-1016.60,1.31,2.80,2.41,-48.45,18.15,43.95,28.7
2026/04/13 15:04:14.98,IMU,-70.31,-23.44,-1020.51,1.39,-2.31,1.46,-48.45,17.70,44.25,28.6
2026/04/13 15:04:15.08,IMU,-59.57,-18.07,-991.70,0.39,-0.37,-0.56,-49.35,18.00,43.05,28.6
2026/04/13 15:04:15.18,IMU,-63.48,-12.21,-990.72,2.49,1.80,0.24,-50.10,18.00,42.00,28.3
2026/04/13 15:04:15.28,IMU,-71.78,-12.21,-1004.39,2.07,-0.94,-3.14,-48.45,16.65,42.90,28.4
2026/04/13 15:04:15.38,IMU,-51.76,-24.41,-1012.70,0.19,9.17,-1.73,-48.75,17.25,37.65,28.4
2026/04/13 15:04:15.48,IMU,-56.15,-15.63,-1021.97,-0.49,4.18,1.40,-47.55,19.80,31.50,28.6
2026/04/13 15:04:15.58,IMU,-54.20,-35.64,-1013.67,-0.65,1.08,0.73,-45.90,20.10,30.60,28.4
2026/04/13 15:04:15.68,IMU,-43.46,-22.95,-1009.28,0.42,2.24,-0.20,-46.35,19.35,29.10,28.6
2026/04/13 15:04:15.78,IMU,-35.16,-28.32,-1006.35,0.96,0.53,0.53,-48.15,19.65,28.05,28.4
2026/04/13 15:04:15.88,IMU,-49.80,-29.79,-1029.30,-1.35,4.36,-1.73,-45.90,20.40,27.30,28.2
2026/04/13 15:04:15.98,IMU,-46.39,-20.51,-1013.67,-0.66,2.20,2.37,-46.05,21.00,24.00,28.4
2026/04/13 15:04:16.08,IMU,-40.53,-33.69,-1017.58,-1.44,4.76,-0.58,-45.15,21.90,20.85,28.5
2026/04/13 15:04:16.18,IMU,-26.86,-26.86,-1018.55,0.60,0.63,0.03,-44.40,22.35,19.80,28.6
2026/04/13 15:04:16.28,IMU,-36.62,-11.72,-1009.28,-0.24,0.89,0.90,-45.00,21.45,18.90,28.6
2026/04/13 15:04:16.38,IMU,-24.90,-27.83,-998.05,-0.21,0.27,-1.27,-44.70,20.55,18.90,28.4
2026/04/13 15:04:16.48,IMU,-39.06,-23.44,-1013.18,0.21,-0.21,-0.85,-44.25,20.55,16.35,28.6
2026/04/13 15:04:16.59,IMU,-31.74,-34.67,-1015.63,0.31,1.72,0.52,-45.15,21.60,14.40,28.4
2026/04/13 15:04:16.69,IMU,-25.88,-19.04,-1019.04,0.20,-0.47,0.81,-43.50,21.45,16.35,28.7
2026/04/13 15:04:16.79,IMU,-16.60,-40.04,-1019.04,1.02,0.41,2.67,-43.65,20.10,16.50,28.5
2026/04/13 15:04:16.89,IMU,-40.04,-24.41,-1017.58,0.59,3.42,1.63,-44.25,20.55,14.25,28.4
2026/04/13 15:04:16.99,IMU,-24.41,-14.65,-1016.60,0.82,0.00,2.16,-43.35,21.90,15.45,28.2
2026/04/13 15:04:17.09,IMU,-27.83,-31.25,-1007.32,0.09,2.07,-0.37,-43.65,22.35,14.40,28.6
2026/04/13 15:04:17.19,IMU,-29.30,-27.34,-1030.27,0.32,0.89,0.07,-44.40,22.35,15.15,28.3
2026/04/13 15:04:17.29,IMU,-12.21,-30.76,-1003.42,1.14,-0.90,-0.58,-45.00,23.25,14.55,28.4
2026/04/13 15:04:17.39,IMU,-15.63,-18.55,-1005.37,0.22,-0.36,-0.12,-44.25,23.25,14.25,28.5
2026/04/13 15:04:17.49,IMU,-29.79,-27.34,-1018.07,0.83,1.16,1.95,-44.25,21.45,14.85,28.6
2026/04/13 15:04:17.59,IMU,-28.81,-30.76,-1029.30,-1.94,-0.30,2.34,-44.40,21.60,14.70,28.4
2026/04/13 15:04:17.69,IMU,-21.48,-22.46,-1023.93,1.26,3.60,0.82,-44.10,21.15,14.40,28.4
2026/04/13 15:04:17.79,IMU,-18.07,-22.46,-1031.74,1.15,-0.76,0.29,-43.65,22.65,15.45,28.2
2026/04/13 15:04:17.89,IMU,-29.79,-32.71,-1006.35,-0.16,-0.84,0.63,-45.00,23.25,13.80,28.7
2026/04/13 15:04:17.99,IMU,-23.44,-22.95,-1009.77,-0.37,-0.53,1.94,-44.70,21.45,14.85,28.7
2026/04/13 15:04:18.09,IMU,-26.37,-31.25,-1021.00,-0.87,2.67,-0.62,-44.85,21.15,14.40,28.1
2026/04/13 15:04:18.19,IMU,-13.18,-23.93,-1008.30,0.05,3.05,-2.38,-43.20,22.20,14.25,28.4
2026/04/13 15:04:18.29,IMU,-13.67,-17.58,-1012.21,0.82,0.24,-0.79,-44.25,21.45,13.80,28.5
2026/04/13 15:04:18.39,IMU,-20.51,-5.86,-1023.44,-0.08,-0.61,-0.75,-43.20,21.45,13.50,28.6
2026/04/13 15:04:18.49,IMU,-27.34,-22.95,-1009.28,0.44,2.44,-0.41,-43.35,22.35,12.90,28.4
2026/04/13 15:04:18.59,IMU,-30.76,-20.51,-1023.93,-1.10,-1.93,-0.27,-45.75,21.00,14.25,28.5
2026/04/13 15:04:18.69,IMU,-20.02,-18.07,-1022.95,0.10,-0.37,-0.95,-43.95,23.25,14.25,28.4
2026/04/13 15:04:18.79,IMU,-26.86,-18.07,-1017.09,-0.49,0.40,1.69,-45.00,22.20,14.55,28.4
2026/04/13 15:04:18.89,IMU,-26.37,-18.55,-1019.53,1.34,-0.87,-1.76,-44.10,21.60,13.95,28.4
2026/04/13 15:04:18.99,IMU,-34.18,-19.04,-1018.55,-1.01,1.02,-0.35,-45.00,21.75,14.25,28.6
2026/04/13 15:04:19.09,IMU,-21.00,-28.81,-1012.21,0.49,-0.27,-1.74,-45.60,23.10,13.95,28.6
2026/04/13 15:04:19.19,IMU,-6.84,-24.41,-989.26,0.73,1.08,-1.32,-44.25,21.45,14.25,28.6
2026/04/13 15:04:19.30,IMU,-20.51,-20.02,-1007.32,-1.56,3.35,1.31,-43.05,22.65,13.35,28.6
2026/04/13 15:04:19.40,IMU,-42.97,-29.79,-1011.72,0.54,-0.16,1.30,-43.95,22.95,13.05,28.4
2026/04/13 15:04:19.50,IMU,-43.46,-47.36,-1059.57,-0.17,6.45,4.19,-43.20,21.75,13.80,28.6
2026/04/13 15:04:19.60,IMU,-18.07,-19.04,-1005.86,-0.71,1.69,-1.94,-45.15,20.85,12.90,28.4
2026/04/13 15:04:19.70,IMU,-31.74,-25.88,-1023.44,0.10,-0.50,-0.11,-44.85,21.90,11.55,28.4
2026/04/13 15:04:19.80,IMU,-23.93,-20.02,-1014.16,-0.03,-1.24,-0.13,-44.70,22.20,14.25,28.5
2026/04/13 15:04:19.90,IMU,-15.63,-14.65,-1016.11,-1.02,0.77,0.79,-45.00,22.50,12.00,28.5
2026/04/13 15:04:20.00,IMU,-27.83,-20.02,-1008.30,-0.40,-1.53,1.09,-43.35,22.35,12.60,28.4
2026/04/13 15:04:20.84,IMU,-23.93,-14.16,-1001.95,-0.75,-0.47,3.52,-44.10,21.15,12.60,28.4
2026/04/13 15:04:20.93,IMU,-13.67,-27.83,-1017.58,-0.21,-0.09,-0.69,-42.30,21.90,11.55,28.3
2026/04/13 15:04:21.04,IMU,-21.97,-19.04,-1013.18,-2.44,-0.66,0.18,-42.60,25.35,10.80,28.7
2026/04/13 15:04:21.14,IMU,-20.02,-35.64,-1017.09,-0.85,-0.16,-2.54,-44.70,23.25,10.20,28.5
2026/04/13 15:04:21.24,IMU,-21.48,-33.20,-1008.30,-0.79,0.09,1.75,-45.15,23.40,10.35,28.4
2026/04/13 15:04:21.34,IMU,-15.14,-17.58,-995.61,0.69,1.73,2.12,-44.40,21.15,9.60,28.6
2026/04/13 15:04:21.44,IMU,-22.46,-15.63,-1007.32,-2.20,2.82,-2.18,-44.25,19.50,8.70,28.6
2026/04/13 15:04:21.54,IMU,-21.00,-27.83,-1014.65,-1.93,-1.37,-0.22,-44.25,19.80,9.45,28.4
2026/04/13 15:04:21.64,IMU,-31.74,-21.97,-1020.51,0.63,0.10,1.95,-45.60,19.35,7.80,28.5
2026/04/13 15:04:21.74,IMU,-26.86,-24.90,-1003.42,0.47,1.06,1.83,-46.35,17.70,8.55,28.6
2026/04/13 15:04:21.84,IMU,-25.39,-24.90,-1012.21,0.66,1.23,-0.69,-44.85,17.40,8.55,28.3
2026/04/13 15:04:21.94,IMU,-10.74,-32.71,-1011.23,-0.84,1.96,0.40,-44.85,19.35,8.25,28.5
2026/04/13 15:04:22.04,IMU,-18.07,-30.76,-1009.77,0.35,2.27,1.62,-45.00,19.50,8.40,28.5
2026/04/13 15:04:22.14,IMU,-25.39,-21.97,-1014.16,-0.43,-0.12,0.20,-46.05,19.05,7.35,28.8
2026/04/13 15:04:22.24,IMU,-23.93,-24.41,-1015.14,0.77,2.12,-0.37,-44.25,19.05,8.40,28.4
2026/04/13 15:04:22.34,IMU,-17.58,-23.44,-1024.90,-1.53,0.17,0.61,-44.85,18.60,8.25,28.7
2026/04/13 15:04:22.44,IMU,-22.95,-25.88,-1014.16,0.05,-1.78,0.02,-45.30,18.30,7.65,28.6
2026/04/13 15:04:22.54,IMU,-15.63,-12.21,-1014.16,-0.78,2.15,1.31,-45.90,18.90,7.50,28.7
2026/04/13 15:04:22.64,IMU,-13.67,-33.20,-1021.97,0.12,-0.84,0.77,-44.85,17.70,11.10,28.3
2026/04/13 15:04:22.74,IMU,-32.23,-21.00,-1021.48,0.31,0.84,1.20,-45.30,18.75,7.35,28.6
2026/04/13 15:04:22.84,IMU,-29.79,-14.16,-1007.32,0.65,0.32,-1.98,-45.75,18.30,8.10,28.3
2026/04/13 15:04:22.94,IMU,-14.65,-25.39,-1021.97,-0.64,1.32,0.43,-45.00,19.05,8.40,28.4
2026/04/13 15:04:23.04,IMU,-41.99,-24.41,-1020.51,-0.92,0.55,-0.95,-44.70,17.55,8.70,28.6
2026/04/13 15:04:23.14,IMU,-18.07,-28.32,-1027.83,0.42,0.57,1.44,-43.95,18.30,9.15,28.7
2026/04/13 15:04:23.24,IMU,-27.83,-34.18,-1016.60,-0.10,2.22,1.34,-45.00,18.75,6.90,28.6
2026/04/13 15:04:23.34,IMU,-18.07,-20.02,-1014.65,-0.99,-2.51,1.03,-44.85,18.15,8.25,28.4
2026/04/13 15:04:23.44,IMU,-10.25,-23.44,-1008.30,0.29,-0.35,0.45,-44.85,18.15,8.25,28.5
2026/04/13 15:04:23.54,IMU,-25.39,-22.95,-998.54,0.05,0.47,-0.11,-45.00,17.55,7.35,28.5
2026/04/13 15:04:23.64,IMU,-15.14,-19.53,-1024.90,0.63,1.60,-1.50,-45.60,18.60,8.55,28.7
2026/04/13 15:04:23.75,IMU,-25.88,-20.02,-1009.77,-0.48,1.64,0.03,-45.00,19.05,9.15,28.6
2026/04/13 15:04:23.85,IMU,-30.27,-15.63,-1000.98,-0.11,-0.35,0.74,-45.30,18.75,9.15,28.4
2026/04/13 15:04:23.95,IMU,-17.09,-22.46,-985.35,-0.31,0.72,-0.71,-45.15,18.15,9.00,28.4
2026/04/13 15:04:24.05,IMU,-23.93,-29.79,-1029.30,1.84,-0.37,-0.31,-45.90,18.15,8.25,28.6
2026/04/13 15:04:24.15,IMU,-21.00,-19.53,-998.54,0.73,0.22,-0.51,-46.05,18.75,8.70,28.4
2026/04/13 15:04:24.25,IMU,-13.18,-24.41,-1012.21,0.92,0.66,1.89,-45.00,18.00,7.35,28.5
2026/04/13 15:04:24.35,IMU,-24.41,-16.60,-1011.72,-0.54,-1.13,0.24,-45.15,18.15,7.50,28.4
2026/04/13 15:04:24.45,IMU,-19.53,-13.18,-1019.53,1.34,0.66,-1.02,-44.40,18.15,9.00,28.6
2026/04/13 15:04:24.55,IMU,-15.63,-27.34,-1023.44,0.05,0.89,0.75,-44.40,17.70,7.20,28.4
2026/04/13 15:04:24.65,IMU,-20.51,-24.41,-1006.35,1.89,-2.92,0.23,-44.70,18.75,8.10,28.8
2026/04/13 15:04:24.75,IMU,-11.23,-21.97,-1026.37,1.34,1.23,0.97,-45.15,18.90,8.55,28.3
2026/04/13 15:04:24.85,IMU,-2.44,-21.00,-1010.25,-0.31,-0.15,-1.23,-45.00,16.05,7.65,28.6
2026/04/13 15:04:24.95,IMU,-20.02,-28.81,-1006.84,0.05,-0.99,2.30,-44.10,17.70,7.20,28.7
2026/04/13 15:04:25.05,IMU,-37.60,-27.83,-1009.28,1.22,0.83,0.62,-45.15,18.60,7.20,28.6
2026/04/13 15:04:25.15,IMU,-15.63,-23.93,-1012.21,-0.18,-2.44,3.41,-44.40,19.35,7.50,28.6
2026/04/13 15:04:25.25,IMU,-13.18,-24.41,-1018.07,-0.13,-1.08,-0.27,-44.85,18.60,6.75,28.6
2026/04/13 15:04:25.35,IMU,-25.39,-15.14,-1011.23,0.95,0.31,0.00,-44.25,19.05,6.60,28.2
2026/04/13 15:04:25.45,IMU,-29.79,-25.88,-1013.18,1.11,1.02,-0.63,-44.25,19.80,7.65,28.6
2026/04/13 15:04:25.55,IMU,-17.58,-23.44,-1016.60,1.06,-1.44,-0.26,-45.60,18.15,7.50,28.6
2026/04/13 15:04:25.65,IMU,-12.21,-37.60,-1020.51,0.21,1.99,-0.18,-44.40,17.40,7.50,28.6
2026/04/13 15:04:25.75,IMU,-21.48,-13.67,-1003.91,-0.20,-1.33,3.79,-44.85,18.90,8.55,28.6
2026/04/13 15:04:25.85,IMU,-21.00,-27.83,-1021.00,0.40,0.31,-1.27,-44.85,16.65,6.00,28.6
2026/04/13 15:04:25.95,IMU,-21.97,-18.55,-1021.97,1.25,-0.34,1.21,-45.75,19.80,6.90,28.4
2026/04/13 15:04:26.05,IMU,-29.79,-18.55,-1017.09,-0.83,-0.84,-1.14,-45.60,23.40,6.00,28.4
2026/04/13 15:04:26.15,IMU,-27.34,-35.16,-1005.37,3.02,-1.00,0.04,-44.25,23.70,6.30,28.5
2026/04/13 15:04:26.25,IMU,-45.90,-17.58,-997.07,0.22,0.01,-0.56,-45.00,20.55,7.35,28.0
2026/04/13 15:04:26.35,IMU,-31.74,-13.18,-992.68,-1.59,0.25,0.16,-43.95,21.75,11.70,28.6
2026/04/13 15:04:26.46,IMU,-41.99,-30.76,-1003.42,2.37,-1.31,2.19,-45.60,21.60,10.80,28.4
2026/04/13 15:04:26.56,IMU,-13.67,-17.58,-1011.23,0.18,-1.72,-1.38,-45.00,22.50,10.20,28.6
2026/04/13 15:04:26.66,IMU,-9.28,-23.93,-1019.53,1.64,-0.82,1.57,-43.20,20.55,11.25,28.4
2026/04/13 15:04:26.76,IMU,-19.53,-25.39,-1014.65,0.31,0.69,-2.30,-45.75,21.00,12.75,28.6
2026/04/13 15:04:26.86,IMU,-14.65,-29.79,-1019.04,0.30,0.47,1.27,-44.70,20.55,10.95,28.3
2026/04/13 15:04:26.96,IMU,-6.35,-23.44,-1018.55,1.24,-0.34,1.32,-45.90,19.65,15.15,28.3
2026/04/13 15:04:27.06,IMU,-16.60,-23.93,-1007.81,0.34,1.22,0.21,-44.70,20.55,12.45,28.4
2026/04/13 15:04:27.16,IMU,-12.70,-31.74,-1022.46,1.16,-1.64,-2.55,-44.40,22.35,11.55,28.4
2026/04/13 15:04:27.26,IMU,-5.37,-22.95,-1017.58,0.57,0.08,-1.26,-45.30,22.20,11.25,28.4
2026/04/13 15:04:27.36,IMU,-25.39,-21.48,-1011.23,-1.67,-1.69,-0.86,-45.30,19.80,11.25,28.6
2026/04/13 15:04:27.46,IMU,-29.79,-28.32,-1004.88,3.44,-1.72,-1.04,-43.50,21.45,11.70,28.5
2026/04/13 15:04:27.56,IMU,-33.20,-22.95,-1021.00,1.67,1.08,1.98,-43.50,22.20,11.25,28.3
2026/04/13 15:04:27.66,IMU,-22.95,-20.02,-1011.23,-0.55,0.96,-2.04,-43.50,21.75,12.45,28.7
2026/04/13 15:04:27.76,IMU,-13.67,-17.58,-1020.51,-0.47,0.51,-1.38,-43.65,22.35,11.55,28.6
2026/04/13 15:04:27.86,IMU,-15.63,-28.81,-1015.14,0.66,-0.41,-2.10,-45.30,20.55,11.85,28.7
2026/04/13 15:04:27.96,IMU,-24.41,-23.93,-1019.04,-0.69,-0.14,1.66,-48.30,19.50,12.45,28.6
2026/04/13 15:04:28.06,IMU,-15.63,-15.63,-1023.93,0.77,0.91,0.87,-43.35,21.90,10.35,28.6
2026/04/13 15:04:28.16,IMU,-28.81,-30.27,-1002.93,1.40,-0.53,-1.33,-45.30,22.20,12.75,28.3
2026/04/13 15:04:28.26,IMU,-16.60,-22.46,-1004.39,-1.37,-1.14,0.70,-44.85,21.60,11.85,28.5
2026/04/13 15:04:28.36,IMU,-17.58,-28.32,-1022.46,1.78,0.81,-0.75,-45.00,20.55,11.25,28.3
2026/04/13 15:04:28.46,IMU,-17.58,-25.88,-1019.04,0.32,1.02,-0.61,-44.70,21.75,10.95,28.7
2026/04/13 15:04:28.56,IMU,-23.44,-42.48,-992.19,-0.25,0.73,1.53,-45.75,21.00,11.25,28.4
2026/04/13 15:04:28.66,IMU,-23.93,-18.55,-1021.97,-0.04,2.15,1.98,-42.60,21.60,11.10,28.2
2026/04/13 15:04:28.76,IMU,-19.04,-39.55,-1015.14,2.00,-0.15,-1.18,-44.10,23.10,12.15,28.6
2026/04/13 15:04:28.86,IMU,-20.51,-21.00,-1014.65,0.35,-0.60,-1.75,-44.85,21.90,11.55,28.7
2026/04/13 15:04:28.96,IMU,-14.65,-21.97,-1003.91,-0.18,-0.86,-0.31,-44.25,20.55,11.25,28.6
2026/04/13 15:04:29.07,IMU,-21.97,-26.86,-1004.39,-0.36,-0.24,-0.55,-45.60,20.40,10.80,28.4
2026/04/13 15:04:29.17,IMU,-26.37,-19.04,-1007.32,1.44,0.08,-2.01,-43.50,21.75,10.50,28.6
2026/04/13 15:04:29.27,IMU,-11.72,-26.86,-1019.04,0.72,-2.18,-2.21,-43.20,22.20,10.50,28.5
2026/04/13 15:04:29.37,IMU,-0.49,-22.46,-1029.79,-0.42,0.69,-1.11,-43.95,20.55,12.00,28.5
2026/04/13 15:04:29.47,IMU,-21.00,-10.74,-1020.51,0.44,-0.11,1.61,-43.50,23.70,10.50,28.4
2026/04/13 15:04:29.57,IMU,-23.44,-29.30,-1021.48,-0.14,-0.06,-3.42,-44.85,22.35,12.15,28.6
2026/04/13 15:04:29.67,IMU,-25.39,-30.27,-1015.14,-0.31,-1.58,-2.20,-44.70,21.45,10.50,28.5
2026/04/13 15:04:29.77,IMU,-12.70,-31.74,-1013.18,0.24,0.89,-1.99,-45.60,21.60,11.85,28.5
2026/04/13 15:04:29.87,IMU,-9.77,-31.25,-1014.65,0.72,-3.69,3.26,-45.30,22.50,11.25,28.5
2026/04/13 15:04:29.97,IMU,-23.93,-22.95,-1016.11,0.05,0.54,-0.30,-45.15,22.35,11.55,28.6
2026/04/13 15:04:30.07,IMU,-22.46,-26.37,-1014.65,-0.62,0.17,-0.31,-45.30,22.50,11.25,28.6
2026/04/13 15:04:30.17,IMU,-22.46,-16.60,-1016.60,1.63,2.11,-0.72,-43.95,20.25,11.25,28.3
2026/04/13 15:04:30.27,IMU,-15.63,-28.81,-1023.44,-0.51,0.46,-2.58,-45.30,21.75,10.95,28.5
2026/04/13 15:04:30.37,IMU,-15.63,-16.11,-1008.30,0.09,-1.21,2.37,-44.10,21.60,10.80,28.6
2026/04/13 15:04:30.47,IMU,-25.88,-22.95,-1018.07,0.15,-0.66,0.44,-44.70,21.45,11.25,28.7
2026/04/13 15:04:30.57,IMU,-17.58,-26.86,-1014.65,0.51,0.50,0.20,-43.35,20.85,12.15,28.6
2026/04/13 15:04:30.67,IMU,-21.00,-33.20,-1011.72,1.38,0.43,-0.61,-44.85,21.90,11.55,28.4
2026/04/13 15:04:30.77,IMU,-17.09,-17.09,-1003.42,-0.87,-0.13,1.20,-44.10,21.60,10.80,28.5
2026/04/13 15:04:30.87,IMU,-14.16,-30.76,-1014.65,-0.18,1.79,2.61,-43.35,20.40,12.60,28.7
2026/04/13 15:04:30.97,IMU,-18.07,-16.60,-1010.25,0.90,1.37,2.32,-44.25,22.50,12.00,28.4
2026/04/13 15:04:31.07,IMU,-14.16,-24.90,-1025.88,1.53,-0.54,0.49,-44.70,21.45,12.45,28.6
2026/04/13 15:04:31.17,IMU,-15.63,-29.30,-1009.77,-0.79,-0.22,0.23,-44.40,21.90,12.15,28.6
2026/04/13 15:04:31.27,IMU,-13.18,-30.76,-1012.70,0.54,0.95,2.07,-44.40,21.90,10.80,28.4
2026/04/13 15:04:31.37,IMU,-9.77,-15.14,-1008.79,0.69,-1.66,-0.54,-45.60,20.85,11.85,28.6
2026/04/13 15:04:31.47,IMU,-26.37,-16.11,-1023.93,-0.35,0.34,1.19,-43.65,21.60,10.35,28.7
2026/04/13 15:04:31.57,IMU,-18.55,-15.63,-1010.74,0.29,1.02,-1.40,-43.95,21.75,10.95,28.3
2026/04/13 15:04:31.67,IMU,-25.88,-25.88,-1017.09,0.34,0.21,0.76,-44.10,21.15,11.55,28.4
2026/04/13 15:04:31.78,IMU,-17.58,-32.23,-1016.11,0.50,-0.22,-1.72,-43.95,20.55,11.25,28.4
2026/04/13 15:04:31.88,IMU,-21.48,-21.00,-1021.48,-0.61,-1.94,1.21,-45.75,22.95,10.95,28.4
2026/04/13 15:04:31.98,IMU,-20.51,-33.20,-1024.90,-0.60,0.61,-0.84,-45.15,21.90,11.10,28.4
2026/04/13 15:04:32.08,IMU,-21.48,-23.44,-1029.79,-2.00,1.20,1.62,-43.65,22.35,11.55,28.4
2026/04/13 15:04:32.18,IMU,-20.02,-25.39,-1016.60,0.82,1.05,-0.32,-44.70,20.55,11.25,28.6
2026/04/13 15:04:32.28,IMU,-15.14,-20.51,-1020.51,-2.00,-1.98,1.43,-45.00,20.55,11.70,28.3
2026/04/13 15:04:32.38,IMU,-22.46,-40.53,-1020.02,-0.34,0.97,0.92,-43.50,24.00,11.25,28.4
2026/04/13 15:04:32.48,IMU,-18.55,-35.16,-1015.14,-0.18,2.56,-2.61,-43.50,21.00,11.25,28.7
2026/04/13 15:04:32.58,IMU,-27.34,-28.32,-1023.44,0.57,-1.07,-0.32,-43.95,22.50,12.00,28.6
2026/04/13 15:04:32.68,IMU,-22.95,-32.23,-1015.63,-0.65,1.04,-0.40,-44.70,21.00,10.95,28.4
2026/04/13 15:04:32.78,IMU,-19.53,-25.39,-1008.79,1.92,0.66,-0.48,-43.65,21.60,10.80,28.6
2026/04/13 15:04:32.88,IMU,-16.11,-20.51,-1021.00,-0.91,-0.23,-0.56,-45.00,22.50,10.50,28.4
2026/04/13 15:04:32.98,IMU,-19.04,-27.83,-1017.09,0.55,-0.16,1.92,-46.50,21.75,10.95,28.5
2026/04/13 15:04:33.08,IMU,-10.74,-19.53,-1015.63,0.16,-0.03,-0.16,-44.10,21.60,10.80,28.4
2026/04/13 15:04:33.18,IMU,-8.30,-23.93,-1005.37,0.38,-0.67,1.84,-43.50,22.50,12.00,28.6
2026/04/13 15:04:33.28,IMU,-30.27,-28.81,-1007.81,0.29,1.24,1.57,-45.00,21.45,11.25,28.4
2026/04/13 15:04:33.38,IMU,-8.79,-37.11,-1013.18,-1.02,-1.56,0.48,-43.95,22.50,10.20,28.6
2026/04/13 15:04:33.48,IMU,-14.16,-32.71,-1021.48,-0.97,0.51,1.69,-44.25,20.25,11.25,28.3
2026/04/13 15:04:33.58,IMU,-21.48,-31.74,-1014.16,1.45,0.15,-0.01,-44.40,21.15,11.55,28.7
2026/04/13 15:04:33.68,IMU,-20.51,-35.64,-1015.63,0.47,-0.22,1.02,-45.15,21.15,11.55,28.6
2026/04/13 15:04:33.78,IMU,-23.93,-22.95,-998.54,-1.11,1.56,1.66,-45.60,21.90,12.15,28.7
2026/04/13 15:04:33.88,IMU,-25.88,-14.16,-1017.58,1.51,0.48,2.66,-43.65,21.60,11.55,28.4
2026/04/13 15:04:33.98,IMU,-31.74,-28.81,-1013.18,0.61,-1.76,-0.24,-44.25,21.75,11.70,28.4
2026/04/13 15:04:34.08,IMU,-11.23,-38.09,-1010.25,-0.10,2.17,-0.04,-46.35,20.85,13.95,28.5
2026/04/13 15:04:34.18,IMU,-18.07,-30.76,-1016.60,-0.73,-1.69,4.73,-45.00,21.45,11.70,28.2
2026/04/13 15:04:34.28,IMU,-26.37,-19.04,-1018.07,1.47,-0.13,-1.43,-43.95,21.00,11.70,28.6
2026/04/13 15:04:34.38,IMU,-27.34,-33.20,-1016.11,0.11,1.97,0.14,-45.00,21.00,12.00,28.7
2026/04/13 15:04:34.48,IMU,-17.09,-19.53,-1017.58,1.08,0.08,-0.76,-45.60,20.40,10.35,28.6
2026/04/13 15:04:34.59,IMU,-13.67,0.49,-1007.32,-0.73,0.05,-0.29,-43.95,21.45,12.00,28.4
2026/04/13 15:04:34.69,IMU,-17.09,-25.88,-1024.41,1.66,0.57,-2.05,-45.15,21.15,11.10,28.5
2026/04/13 15:04:34.79,IMU,-23.44,-24.90,-1019.04,-0.84,0.49,-0.44,-45.30,21.45,10.95,28.4
2026/04/13 15:04:34.89,IMU,-15.63,-24.41,-1013.67,-0.73,0.16,-0.46,-45.15,20.85,11.55,28.6
2026/04/13 15:04:34.99,IMU,-20.02,-24.41,-1013.18,-0.87,0.93,-0.51,-46.05,21.75,10.50,28.4
2026/04/13 15:04:35.09,IMU,-30.76,-29.79,-1017.09,-2.96,0.26,0.08,-45.75,19.80,14.55,28.6
2026/04/13 15:04:35.19,IMU,-22.95,-29.79,-1011.72,0.65,1.43,2.46,-45.00,21.45,12.45,28.6
2026/04/13 15:04:35.29,IMU,-21.00,-24.90,-1018.55,0.55,1.07,-1.12,-45.90,21.60,11.85,28.4
2026/04/13 15:04:35.39,IMU,-11.23,-35.64,-1004.39,-0.14,-1.04,-2.41,-43.05,21.15,11.10,28.5
2026/04/13 15:04:35.49,IMU,-21.48,-22.95,-1011.23,0.39,-0.73,1.44,-45.60,21.60,10.35,28.4
2026/04/13 15:04:35.59,IMU,-23.44,-18.07,-1007.81,0.13,0.60,1.50,-44.25,22.20,10.95,28.6
2026/04/13 15:04:35.69,IMU,-18.07,-21.00,-1014.65,-0.68,1.02,2.02,-43.50,20.55,10.95,28.5
2026/04/13 15:04:35.79,IMU,-28.32,-33.20,-1000.98,1.27,-1.01,-0.31,-43.65,20.85,11.10,28.4
2026/04/13 15:04:35.89,IMU,-30.27,-31.25,-1021.00,-0.24,0.79,-0.19,-44.25,21.75,11.25,28.5
2026/04/13 15:04:35.99,IMU,-8.30,-33.69,-1011.72,1.69,0.21,-0.08,-43.65,21.90,10.80,28.6
2026/04/13 15:04:36.09,IMU,-12.70,-33.69,-1012.70,0.80,1.50,-0.30,-48.30,18.00,17.40,28.7
2026/04/13 15:04:36.19,IMU,-19.04,-30.76,-1030.76,0.53,0.60,0.56,-44.40,20.40,10.35,28.6
2026/04/13 15:04:36.29,IMU,-20.51,-28.32,-1021.97,0.20,1.44,-0.87,-44.10,23.40,8.55,28.4
2026/04/13 15:04:36.39,IMU,-27.34,-15.14,-1010.74,0.21,0.51,0.05,-44.85,22.65,7.50,28.5
2026/04/13 15:04:36.49,IMU,-14.65,-31.25,-1034.67,-1.15,1.66,-2.01,-46.50,19.05,5.10,28.6
2026/04/13 15:04:36.59,IMU,-18.07,-18.07,-1023.44,1.34,-0.07,0.85,-46.35,18.60,4.20,28.6
2026/04/13 15:04:36.69,IMU,-34.67,-23.44,-1021.00,0.95,-0.60,-1.10,-45.75,20.25,4.80,28.6
2026/04/13 15:04:36.79,IMU,-24.90,-16.11,-994.14,0.25,0.20,0.97,-44.40,21.15,5.40,28.6
2026/04/13 15:04:36.89,IMU,-21.00,-25.88,-1015.14,-0.49,-1.53,2.55,-44.25,23.25,9.15,28.6
2026/04/13 15:04:36.99,IMU,-20.51,-21.97,-1013.18,1.49,1.23,-0.31,-43.50,24.45,10.50,28.4
2026/04/13 15:04:37.09,IMU,-23.93,-27.34,-1010.25,-0.06,0.60,3.16,-43.65,23.10,9.30,28.6
2026/04/13 15:04:37.19,IMU,-20.51,-34.18,-1006.84,0.22,0.63,2.82,-44.70,22.95,10.50,28.3
2026/04/13 15:04:37.30,IMU,-24.41,-29.79,-1015.14,-0.59,2.00,2.01,-43.65,23.10,11.85,28.8
2026/04/13 15:04:37.40,IMU,-23.44,-26.37,-1004.39,0.62,0.15,-0.59,-43.95,24.00,9.90,28.2
2026/04/13 15:04:37.50,IMU,-27.34,-26.86,-1014.65,-2.15,1.76,-1.27,-45.00,23.25,7.35,28.4
2026/04/13 15:04:37.60,IMU,-22.46,-18.07,-998.54,1.87,-0.62,0.32,-43.65,22.35,8.25,28.7
2026/04/13 15:04:37.70,IMU,-28.32,-24.41,-1013.67,0.08,-0.13,1.40,-44.25,19.80,8.10,28.6
2026/04/13 15:04:37.80,IMU,-16.60,-23.44,-1013.18,0.11,2.19,-1.27,-44.40,20.85,8.25,28.4
2026/04/13 15:04:37.90,IMU,-7.81,-29.30,-1024.41,0.30,-0.14,-2.24,-44.40,19.65,8.25,28.7
2026/04/13 15:04:38.00,IMU,-20.02,-30.27,-1022.95,-0.37,-0.60,0.46,-44.70,20.25,8.40,28.2
2026/04/13 15:04:38.10,IMU,-24.90,-20.02,-1009.77,0.86,3.44,-0.24,-45.15,21.15,9.30,28.6
2026/04/13 15:04:38.20,IMU,-19.53,-33.20,-1005.86,0.34,2.09,-0.01,-45.00,20.55,8.40,28.4
2026/04/13 15:04:38.30,IMU,-22.46,-20.02,-1012.70,0.04,0.95,1.37,-45.00,21.00,9.90,28.6
2026/04/13 15:04:38.40,IMU,-12.70,-15.14,-1016.11,0.10,0.43,-1.93,-44.25,21.45,9.15,28.7
2026/04/13 15:04:38.50,IMU,-17.09,-26.86,-1023.93,1.02,0.68,-0.24,-44.85,21.15,7.50,28.5
2026/04/13 15:04:38.60,IMU,-26.37,-22.95,-1023.93,-0.57,1.03,0.09,-43.95,19.80,8.10,28.6
2026/04/13 15:04:38.70,IMU,-35.16,-22.46,-1003.42,-0.12,2.69,-0.34,-44.70,21.00,8.70,28.6
2026/04/13 15:04:38.80,IMU,-28.81,-28.81,-1007.32,0.74,1.92,2.15,-44.10,19.65,8.55,28.5
2026/04/13 15:04:38.90,IMU,-23.93,-24.90,-1022.95,0.23,-1.53,0.95,-45.30,20.55,9.45,28.4
2026/04/13 15:04:39.00,IMU,-18.55,-30.27,-1019.53,-1.07,1.18,-1.65,-44.10,19.35,9.00,28.6
2026/04/13 15:04:39.10,IMU,-22.46,-22.95,-1013.18,0.68,0.09,-0.21,-46.35,20.85,10.35,28.4
2026/04/13 15:04:39.20,IMU,-22.46,-39.06,-1011.23,0.35,-0.60,-0.26,-44.25,20.85,7.50,28.9
2026/04/13 15:04:39.30,IMU,-10.74,-18.55,-1014.65,-0.83,-0.34,-0.76,-45.00,18.75,8.10,28.6
2026/04/13 15:04:39.40,IMU,-21.97,-19.53,-1016.60,0.95,-0.27,0.01,-45.15,20.10,9.60,28.5
2026/04/13 15:04:39.50,IMU,-13.67,-21.48,-1021.97,-1.94,-1.54,-3.28,-44.85,21.60,7.80,28.4
2026/04/13 15:04:39.60,IMU,-30.27,-12.21,-1016.11,-0.31,-1.18,1.10,-44.85,19.65,9.30,28.6
2026/04/13 15:04:39.70,IMU,-22.95,-16.11,-1016.60,0.27,3.02,0.40,-45.75,19.50,7.65,28.6
2026/04/13 15:04:39.80,IMU,-24.90,-27.34,-1015.14,0.18,1.33,1.50,-43.95,19.05,9.15,28.6
2026/04/13 15:04:39.91,IMU,-9.28,-20.02,-1017.09,0.08,-0.57,0.50,-43.95,20.10,8.55,28.7
2026/04/13 15:04:40.01,IMU,-7.32,-21.48,-1027.83,0.59,-0.59,1.18,-45.90,19.65,7.50,28.6
2026/04/13 15:04:40.11,IMU,-16.60,-25.88,-1021.48,-0.24,1.44,-0.32,-44.70,21.45,8.10,28.7
2026/04/13 15:04:40.21,IMU,-13.67,-17.58,-1019.04,1.08,-1.97,1.39,-44.10,21.15,10.80,28.5
2026/04/13 15:04:40.31,IMU,-11.72,-30.76,-1002.93,-0.30,-0.77,0.44,-43.35,22.65,11.10,28.5
2026/04/13 15:04:40.41,IMU,-3.91,-36.62,-1029.79,0.74,-0.86,2.84,-43.35,21.60,11.10,28.6
2026/04/13 15:04:40.51,IMU,-26.86,-23.93,-1017.09,-2.82,1.44,1.01,-44.10,22.35,10.80,28.6
2026/04/13 15:04:40.61,IMU,-27.34,-26.37,-1003.91,1.22,-0.77,-0.96,-43.35,21.90,12.90,28.3
2026/04/13 15:04:40.71,IMU,-15.63,-26.37,-1009.77,-1.00,-2.02,1.01,-43.65,22.65,12.15,28.6
2026/04/13 15:04:40.81,IMU,-24.90,-29.30,-1010.25,-0.59,1.50,-0.30,-43.50,22.95,12.00,28.4
2026/04/13 15:04:40.91,IMU,-25.39,-21.00,-1032.23,-0.35,0.66,-1.33,-44.10,21.90,12.60,28.6
2026/04/13 15:04:41.01,IMU,-30.27,-17.58,-1010.74,-1.73,2.21,1.45,-43.20,23.25,10.95,28.3
2026/04/13 15:04:41.11,IMU,-21.00,-20.02,-1017.09,-1.11,1.53,-0.04,-43.50,21.45,11.70,28.4
2026/04/13 15:04:41.21,IMU,-17.58,-17.58,-1028.81,-0.79,0.08,2.11,-42.00,21.75,10.95,28.6
2026/04/13 15:04:41.31,IMU,-19.53,-29.79,-1012.21,0.75,-0.18,1.18,-43.35,23.40,11.10,28.4
2026/04/13 15:04:41.41,IMU,-29.30,-13.18,-1024.41,0.50,1.11,-0.15,-44.85,22.65,11.85,28.5
2026/04/13 15:04:41.51,IMU,-24.41,-24.41,-1023.44,-0.80,-0.99,-1.67,-44.10,22.65,11.85,28.8
2026/04/13 15:04:41.61,IMU,-23.93,-15.14,-1012.21,1.18,-0.11,-2.09,-42.45,21.00,12.00,28.5
2026/04/13 15:04:41.71,IMU,-13.18,-22.95,-1022.46,0.08,-0.82,0.76,-43.65,21.90,11.10,28.6
2026/04/13 15:04:41.81,IMU,-19.53,-25.88,-1008.79,0.35,0.43,-0.10,-42.75,22.20,12.75,28.6
2026/04/13 15:04:41.91,IMU,-13.18,-19.04,-1008.30,-0.89,2.73,2.83,-43.50,21.75,11.70,28.6
2026/04/13 15:04:42.01,IMU,-21.48,-28.81,-1008.30,0.41,0.40,0.68,-43.05,22.35,10.35,28.4
2026/04/13 15:04:42.11,IMU,-18.07,-21.97,-1013.18,-0.28,-0.66,0.40,-44.25,21.75,11.25,28.5
2026/04/13 15:04:42.21,IMU,-21.00,-6.84,-1017.09,0.56,0.39,1.24,-43.65,20.85,11.85,28.7
2026/04/13 15:04:42.31,IMU,-15.63,-25.88,-1016.60,1.22,-0.32,3.30,-43.50,22.20,11.70,28.6
2026/04/13 15:04:42.41,IMU,-11.23,-21.97,-1003.91,-0.66,1.66,3.40,-42.75,22.20,10.95,28.6
2026/04/13 15:04:42.51,IMU,-34.18,-22.95,-1025.39,-0.41,1.24,-2.52,-43.35,20.85,10.05,28.5
2026/04/13 15:04:42.62,IMU,-13.67,-6.35,-1009.77,-0.08,-0.72,0.41,-43.05,22.65,11.10,28.4
2026/04/13 15:04:42.72,IMU,-16.60,-11.72,-1028.32,-0.06,0.03,-0.63,-44.10,21.60,10.35,28.6
2026/04/13 15:04:42.82,IMU,-22.95,-20.51,-1028.32,-1.12,1.14,-0.95,-43.05,22.65,11.55,28.7
2026/04/13 15:04:42.92,IMU,-23.44,-11.72,-999.51,-1.29,0.05,-2.22,-43.95,21.75,12.45,28.4
2026/04/13 15:04:43.02,IMU,-7.32,-25.88,-1007.81,0.14,0.60,-0.22,-45.15,22.35,11.10,28.5
2026/04/13 15:04:43.12,IMU,-16.11,-32.71,-1017.58,1.53,-1.37,-1.84,-43.35,21.15,11.10,28.4
2026/04/13 15:04:43.22,IMU,-15.14,-22.95,-1007.32,-0.08,-0.36,1.63,-44.85,22.35,12.90,28.4
2026/04/13 15:04:43.32,IMU,-31.74,-35.16,-1014.16,0.24,-1.95,1.49,-42.60,22.35,12.15,28.4
2026/04/13 15:04:43.42,IMU,-9.28,-30.27,-1000.98,1.11,-1.11,-1.01,-43.65,22.35,10.80,28.8
2026/04/13 15:04:43.52,IMU,-7.81,-40.53,-1011.72,1.24,0.57,-0.32,-43.50,22.95,10.50,28.4
2026/04/13 15:04:43.62,IMU,-26.37,-31.74,-1024.41,1.13,2.32,-1.88,-44.25,21.75,11.70,28.3
2026/04/13 15:04:43.72,IMU,-20.02,-31.25,-1019.04,0.21,1.71,3.18,-43.65,21.90,11.55,28.6
2026/04/13 15:04:43.82,IMU,-22.95,-38.09,-1007.81,-1.12,0.99,1.08,-43.35,22.35,12.15,28.4
2026/04/13 15:04:43.92,IMU,-20.02,-25.88,-1009.77,-0.23,-0.15,-0.90,-42.75,22.50,11.25,28.6
2026/04/13 15:04:44.02,IMU,-18.07,-22.46,-1006.35,0.59,0.14,1.32,-43.20,21.75,10.20,28.2
2026/04/13 15:04:44.12,IMU,-25.88,-12.21,-1015.63,1.15,0.38,-1.32,-42.30,21.90,13.35,28.6
2026/04/13 15:04:44.22,IMU,-18.55,-27.83,-1018.07,-1.02,1.39,-0.93,-45.75,20.25,15.60,28.6
2026/04/13 15:04:44.32,IMU,-14.65,-35.64,-1030.76,-0.80,4.11,0.34,-41.25,22.20,11.70,28.4
2026/04/13 15:04:44.42,IMU,-9.77,-23.44,-1025.88,-0.08,0.71,-1.63,-44.25,23.25,11.70,28.6
2026/04/13 15:04:44.52,IMU,-3.91,-26.37,-1004.88,-1.37,1.18,1.02,-42.60,20.40,11.85,28.4
2026/04/13 15:04:44.62,IMU,-4.39,-39.55,-1011.23,0.41,0.13,-0.04,-43.35,23.10,12.90,28.6
2026/04/13 15:04:44.72,IMU,-35.16,-33.69,-1018.07,0.12,-0.17,2.53,-43.05,20.85,11.85,28.6
2026/04/13 15:04:44.82,IMU,-15.14,-31.74,-1026.86,0.47,-1.16,-2.24,-43.50,21.75,12.00,28.4
2026/04/13 15:04:44.92,IMU,-21.97,-26.37,-1014.65,-0.33,1.48,0.71,-43.20,22.20,11.25,28.6
2026/04/13 15:04:45.02,IMU,-11.72,-26.86,-1021.00,0.84,-3.13,0.82,-42.00,22.50,12.45,28.7
2026/04/13 15:04:45.12,IMU,-16.60,-21.48,-1020.02,1.27,0.54,0.66,-44.70,22.50,10.95,28.6
2026/04/13 15:04:45.23,IMU,-16.11,-16.11,-1022.46,-0.51,0.27,0.41,-43.95,21.00,13.80,28.6
2026/04/13 15:04:45.33,IMU,-14.16,-18.55,-1013.18,-0.95,1.96,-1.56,-43.65,22.65,12.15,28.2
2026/04/13 15:04:45.43,IMU,-27.34,-11.72,-1008.30,0.59,2.17,0.76,-44.10,20.40,12.15,28.6
2026/04/13 15:04:45.53,IMU,-26.37,-22.95,-1015.14,-0.30,1.53,-1.17,-43.35,21.60,10.35,28.7
2026/04/13 15:04:45.63,IMU,-14.65,-26.37,-1027.34,-1.39,0.86,1.37,-42.60,21.60,13.35,28.4
2026/04/13 15:04:45.73,IMU,-33.20,-35.16,-1033.69,2.15,0.42,-1.24,-42.75,21.75,12.75,28.4
2026/04/13 15:04:45.83,IMU,-26.37,-22.46,-1020.51,1.35,-0.55,-0.60,-43.35,21.90,11.85,28.6
2026/04/13 15:04:45.93,IMU,-47.85,-26.86,-1010.74,-0.10,-0.53,-1.60,-43.20,22.20,11.25,28.6
2026/04/13 15:04:46.03,IMU,-9.28,-28.81,-1004.39,-1.19,0.05,1.47,-43.35,21.90,12.60,28.6
2026/04/13 15:04:46.13,IMU,-14.16,-25.39,-1016.60,-0.92,0.09,-1.25,-42.00,21.75,12.00,28.4
2026/04/13 15:04:46.23,IMU,-8.30,-30.76,-1020.51,0.88,1.10,0.49,-43.35,22.65,12.60,28.6
2026/04/13 15:04:46.33,IMU,-3.91,-8.30,-1009.28,1.58,-2.81,2.20,-43.35,21.60,12.60,28.6
2026/04/13 15:04:46.43,IMU,-27.34,-37.60,-1029.30,0.00,-0.06,0.44,-43.05,22.35,11.10,28.4
2026/04/13 15:04:46.53,IMU,-11.72,-25.88,-1013.18,1.27,-2.08,2.88,-44.10,21.90,10.80,28.7
2026/04/13 15:04:46.63,IMU,50.78,-23.44,-1040.53,-1.47,2.36,5.68,-43.50,21.75,11.70,28.6
2026/04/13 15:04:46.73,IMU,-25.88,-32.71,-999.51,0.35,-1.18,-0.92,-42.75,22.95,11.70,28.6
2026/04/13 15:04:46.83,IMU,-26.86,-25.88,-1003.91,-0.14,0.20,2.55,-44.10,23.85,12.15,28.3
2026/04/13 15:04:46.93,IMU,-36.62,-8.79,-1020.51,0.47,2.04,-2.69,-43.50,21.75,11.25,28.4
2026/04/13 15:04:47.03,IMU,5.37,-34.67,-1028.32,0.09,0.99,-0.34,-43.05,20.10,10.35,28.7
2026/04/13 15:04:47.13,IMU,-33.69,-9.77,-1012.21,1.82,-0.32,-0.46,-43.35,23.10,12.60,28.6
2026/04/13 15:04:47.23,IMU,-0.49,-32.71,-990.23,2.05,-0.03,-1.60,-42.60,22.65,3.15,28.5
2026/04/13 15:04:47.33,IMU,-53.22,-30.76,-1013.67,1.87,-2.41,-8.01,-43.50,23.25,2.25,28.5
2026/04/13 15:04:47.43,IMU,-129.88,-94.24,-1000.98,-1.72,0.50,-23.02,-41.10,22.65,3.15,28.6
2026/04/13 15:04:47.53,IMU,-83.98,15.14,-1019.53,1.15,-4.21,-44.69,-41.85,23.10,3.90,28.5
2026/04/13 15:04:47.63,IMU,-56.15,29.79,-937.99,2.95,32.31,-93.66,-40.95,22.20,5.10,28.4
2026/04/13 15:04:47.74,IMU,292.48,198.73,-1042.97,-4.29,29.77,-107.69,-40.95,22.95,0.45,28.3
2026/04/13 15:04:47.84,IMU,131.84,2.93,-1078.13,17.89,9.98,-33.89,-39.00,25.35,-10.35,28.4
2026/04/13 15:04:47.94,IMU,178.71,-12.70,-982.91,-0.06,0.82,-0.77,-39.60,24.60,-10.05,28.7
2026/04/13 15:04:48.04,IMU,-138.18,-15.63,-1190.43,9.49,4.56,6.76,-37.20,22.95,-10.95,28.7
2026/04/13 15:04:48.14,IMU,25.39,-50.78,-999.51,3.44,-7.82,0.24,-36.75,22.35,-11.55,28.6
2026/04/13 15:04:48.24,IMU,7.81,-33.20,-1027.83,-0.60,4.35,1.68,-36.90,22.20,-10.95,28.8
2026/04/13 15:04:48.34,IMU,141.60,-3.91,-966.80,-0.37,-0.25,11.30,-37.50,23.10,-11.55,28.5
2026/04/13 15:04:48.44,IMU,27.34,-44.92,-1023.93,-0.50,0.29,2.62,-35.40,21.45,-12.45,28.4
2026/04/13 15:04:48.54,IMU,40.53,-29.30,-1018.55,-0.78,-0.82,2.18,-37.95,23.70,-11.70,28.5
2026/04/13 15:04:48.64,IMU,51.76,-27.83,-1012.21,-0.97,0.98,-0.53,-36.15,22.95,-12.00,28.5
2026/04/13 15:04:48.74,IMU,41.99,-37.11,-1024.90,1.40,-4.27,-0.18,-36.60,23.70,-11.25,28.4
2026/04/13 15:04:48.84,IMU,30.27,-31.74,-1024.41,1.32,-0.46,-2.39,-37.05,22.35,-13.35,28.4
2026/04/13 15:04:48.94,IMU,41.99,-41.99,-1014.65,0.82,1.89,0.76,-37.50,23.10,-12.15,28.6
2026/04/13 15:04:49.04,IMU,40.53,-22.95,-1018.07,-0.70,-1.05,-1.55,-36.90,23.25,-12.75,28.6
2026/04/13 15:04:49.14,IMU,94.24,-16.11,-953.61,-0.48,1.45,-0.35,-37.50,24.30,-11.85,28.6
2026/04/13 15:04:49.24,IMU,63.48,-11.72,-1017.09,-1.37,6.25,-1.63,-35.85,22.20,-10.95,28.4
2026/04/13 15:04:49.34,IMU,40.53,-46.88,-1014.65,-1.21,1.64,-0.56,-35.55,24.60,-12.15,28.7
2026/04/13 15:04:49.44,IMU,20.02,-31.74,-780.27,3.55,-13.05,-0.65,-35.85,23.25,-11.70,28.4
2026/04/13 15:04:49.54,IMU,82.52,-20.02,-1091.31,0.02,2.28,-5.76,-36.30,22.65,-13.35,28.4
2026/04/13 15:04:49.64,IMU,99.12,-31.74,-1080.57,0.87,0.08,1.24,-36.30,24.30,-11.85,28.5
2026/04/13 15:04:49.74,IMU,-3.42,-5.86,-1031.74,1.83,-11.37,7.19,-36.15,22.95,-11.70,28.6
2026/04/13 15:04:49.84,IMU,49.32,-73.73,-983.40,-4.54,-15.17,0.66,-36.75,24.30,-10.05,28.4
2026/04/13 15:04:49.94,IMU,21.97,33.20,-1009.28,-5.84,-11.09,16.73,-36.90,24.00,-9.90,28.6
2026/04/13 15:04:50.04,IMU,40.53,-6.84,-1101.56,6.87,30.67,-1.00,-33.90,22.95,-15.60,28.6
2026/04/13 15:04:50.14,IMU,66.41,-47.36,-978.03,12.82,54.82,-4.76,-39.00,21.15,-14.40,28.4
2026/04/13 15:04:50.24,IMU,86.91,-108.40,-860.84,-9.47,-3.59,4.14,-39.60,18.15,-14.70,28.4
2026/04/13 15:04:50.35,IMU,375.00,-120.12,-1057.13,-20.84,-6.24,1.82,-37.50,22.65,-15.45,28.6
2026/04/13 15:04:50.45,IMU,105.96,-48.83,-1064.94,-2.84,7.66,4.82,-36.30,24.30,-15.75,28.5
2026/04/13 15:04:50.55,IMU,434.57,385.25,-115.72,31.79,0.30,27.84,-35.40,24.45,-6.60,28.5
2026/04/13 15:04:50.65,IMU,47.85,-5.86,-958.98,-0.85,-0.58,0.37,-36.75,23.85,-8.55,28.6
2026/04/13 15:04:50.75,IMU,150.88,28.32,-1018.55,-0.89,11.49,-14.52,-36.00,24.60,-9.30,28.7
2026/04/13 15:04:50.85,IMU,130.86,-13.18,-852.54,-4.07,-4.95,-3.23,-35.85,24.45,-12.45,28.6
2026/04/13 15:04:50.95,IMU,41.99,15.63,-1034.67,0.92,-10.08,6.85,-35.85,25.50,-11.25,28.5
2026/04/13 15:04:51.05,IMU,49.32,-17.09,-1108.89,22.36,-10.55,12.51,-36.30,25.05,-6.00,28.6
2026/04/13 15:04:51.15,IMU,17.09,-39.55,-1012.70,-1.40,3.27,3.21,-36.60,24.00,-2.70,28.5
2026/04/13 15:04:51.25,IMU,28.32,-46.39,-1012.21,1.64,-2.39,2.62,-35.25,24.30,-2.10,28.6
2026/04/13 15:04:51.35,IMU,44.43,-4.88,-930.18,-0.79,0.64,1.76,-34.65,24.00,-5.55,28.7
2026/04/13 15:04:51.45,IMU,0.98,-258.30,-1029.30,1.82,18.64,-1.18,-35.85,23.70,-8.40,28.6
2026/04/13 15:04:51.55,IMU,34.18,-29.79,-1015.14,-1.18,5.08,0.37,-34.20,23.85,-7.80,28.4
2026/04/13 15:04:51.65,IMU,43.46,-24.90,-1006.35,3.80,-0.11,0.18,-35.40,25.50,-9.15,28.6
2026/04/13 15:04:51.75,IMU,42.97,-28.81,-1005.86,-0.08,0.88,-1.83,-36.00,24.30,-11.10,28.6
2026/04/13 15:04:51.85,IMU,51.76,-27.34,-1009.77,-0.43,1.38,-0.51,-36.60,23.70,-11.70,28.2
2026/04/13 15:04:51.95,IMU,45.41,-29.30,-1011.72,-0.96,-0.86,0.26,-37.65,23.70,-12.00,28.3
2026/04/13 15:04:52.05,IMU,57.62,-38.57,-1024.90,0.78,0.99,-0.59,-36.75,24.30,-12.15,28.7
2026/04/13 15:04:52.15,IMU,52.25,-31.74,-1028.81,-0.53,1.18,0.82,-34.65,24.75,-13.05,28.2
2026/04/13 15:04:52.25,IMU,61.04,-34.18,-1005.37,-0.30,2.29,3.29,-34.95,24.30,-11.85,28.6
2026/04/13 15:04:52.35,IMU,42.97,-30.27,-1023.44,1.24,1.24,2.95,-35.25,24.60,-9.00,28.3
2026/04/13 15:04:52.45,IMU,46.88,-33.69,-1015.14,-1.07,0.69,0.63,-33.90,25.50,-11.70,28.6
2026/04/13 15:04:52.55,IMU,54.69,-26.37,-1013.67,0.80,1.37,-0.65,-34.20,23.40,-10.05,28.6
2026/04/13 15:04:52.65,IMU,67.87,-40.04,-1006.84,0.08,0.10,-1.53,-35.25,24.60,-11.55,28.5
2026/04/13 15:04:52.75,IMU,46.88,-33.69,-1015.14,1.11,0.94,-2.57,-33.00,25.35,-11.85,28.6
2026/04/13 15:04:52.85,IMU,53.71,-40.04,-1011.72,0.53,0.67,0.95,-35.85,24.45,-12.75,28.6
2026/04/13 15:04:52.95,IMU,47.36,-41.99,-1006.35,-0.36,-1.11,-0.53,-33.90,25.50,-12.60,28.6
2026/04/13 15:04:53.06,IMU,55.18,-27.83,-1004.39,0.32,0.79,-0.82,-34.95,25.05,-13.65,28.0
2026/04/13 15:04:53.16,IMU,52.25,-24.41,-1020.51,-0.93,1.25,2.92,-35.55,24.30,-12.15,28.4
2026/04/13 15:04:53.26,IMU,50.29,-18.55,-1016.11,1.14,0.60,0.42,-34.65,22.95,-12.00,28.2
2026/04/13 15:04:53.36,IMU,57.13,-23.93,-1010.25,-1.26,-1.73,0.91,-33.75,22.65,-10.80,28.6
2026/04/13 15:04:53.46,IMU,59.08,-16.11,-1019.53,0.46,1.98,0.31,-33.45,24.60,-12.90,28.6
2026/04/13 15:04:53.56,IMU,48.34,-24.90,-1008.79,2.34,-1.21,1.39,-34.50,24.30,-12.15,28.5
2026/04/13 15:04:53.66,IMU,55.66,-27.34,-1002.44,1.33,-0.54,-2.09,-34.95,26.85,-11.10,28.5
2026/04/13 15:04:53.76,IMU,38.57,-29.79,-1014.16,-0.19,2.67,1.28,-34.65,26.25,-11.25,28.2
2026/04/13 15:04:53.86,IMU,35.16,-29.79,-1011.72,0.73,-1.63,1.54,-34.65,25.20,-10.50,28.7
2026/04/13 15:04:53.96,IMU,49.80,-26.86,-1014.65,-0.60,2.21,-0.70,-34.95,24.60,-10.80,28.6
2026/04/13 15:04:54.06,IMU,56.64,-30.27,-1007.32,0.86,-1.10,1.38,-33.00,24.30,-10.35,28.6
2026/04/13 15:04:54.16,IMU,56.15,-19.53,-1018.07,0.76,0.23,1.25,-35.55,25.80,-10.05,28.7
2026/04/13 15:04:54.26,IMU,44.92,-31.74,-1015.63,0.08,-0.45,-1.27,-35.55,25.05,-10.35,28.6
2026/04/13 15:04:54.37,IMU,61.52,-30.76,-1005.86,1.84,2.21,0.07,-34.50,22.65,-8.25,28.6
2026/04/13 15:04:54.47,IMU,60.06,-35.16,-1017.09,-1.60,-0.76,1.82,-33.75,25.05,-10.80,28.6
2026/04/13 15:04:54.57,IMU,49.32,-24.41,-1004.88,0.18,-0.76,1.92,-35.40,24.75,-12.45,28.6
2026/04/13 15:04:54.67,IMU,47.85,-19.04,-1019.53,3.31,-0.62,-1.07,-33.90,25.20,-10.95,28.4
2026/04/13 15:04:54.77,IMU,51.27,-35.16,-1006.84,-0.59,0.53,-3.87,-34.50,25.35,-11.10,28.8
2026/04/13 15:04:54.87,IMU,59.08,-22.46,-1016.60,3.63,0.18,1.48,-33.90,24.75,-12.00,28.4
2026/04/13 15:04:54.97,IMU,57.62,-32.23,-999.02,-1.10,-0.31,-1.48,-33.90,23.25,-10.95,28.7
2026/04/13 15:04:55.07,IMU,60.06,-39.06,-1011.72,-0.11,-0.79,-0.53,-35.25,24.30,-12.15,28.4
2026/04/13 15:04:55.17,IMU,47.36,-21.97,-1025.39,1.30,-0.55,1.70,-34.50,25.35,-12.15,28.4
2026/04/13 15:04:55.27,IMU,58.59,-30.76,-1012.21,0.61,0.50,1.75,-33.75,25.05,-11.55,28.3
2026/04/13 15:04:55.37,IMU,51.76,-23.44,-1023.93,-1.66,2.58,-1.50,-33.60,24.00,-9.90,28.7
2026/04/13 15:04:55.47,IMU,41.50,-27.34,-1021.00,1.76,0.05,0.27,-35.85,24.45,-11.25,28.6
2026/04/13 15:04:55.57,IMU,59.08,-23.44,-1020.51,0.37,0.73,1.08,-34.35,24.45,-10.95,28.6
2026/04/13 15:04:55.67,IMU,45.90,-32.71,-1019.53,-1.27,-1.27,-0.73,-32.70,25.80,-10.80,28.6
2026/04/13 15:04:55.77,IMU,48.83,-34.67,-1021.97,-1.40,-2.18,3.16,-35.55,23.85,-9.30,28.3
2026/04/13 15:04:55.87,IMU,58.11,-35.64,-1010.74,-1.01,-0.35,-1.51,-36.00,23.85,-10.05,28.5
2026/04/13 15:04:55.97,IMU,49.32,-18.07,-1022.46,-0.03,-0.98,-1.27,-34.20,25.35,-10.80,28.6
2026/04/13 15:04:56.07,IMU,46.88,-22.46,-997.07,1.65,0.50,1.24,-32.85,26.25,-9.90,28.6
2026/04/13 15:04:56.17,IMU,48.83,-30.27,-1006.35,-0.73,-0.73,-0.31,-33.30,27.00,-11.70,28.4
2026/04/13 15:04:56.28,IMU,44.92,-29.79,-1017.09,-1.50,1.40,1.97,-34.65,27.90,-14.55,28.4
2026/04/13 15:04:56.38,IMU,58.59,-32.71,-1017.58,0.87,1.46,-0.89,-35.25,26.55,-15.45,28.2
2026/04/13 15:04:56.48,IMU,44.92,-41.50,-1007.32,-1.34,1.60,-0.85,-34.35,26.25,-13.80,28.3
2026/04/13 15:04:56.58,IMU,56.64,-16.11,-1011.72,0.00,-0.95,0.99,-36.00,26.55,-13.95,28.6
2026/04/13 15:04:56.68,IMU,54.20,-31.74,-1025.39,-0.38,0.68,2.66,-34.35,26.25,-14.25,28.6
2026/04/13 15:04:56.78,IMU,50.78,-31.25,-996.58,-1.89,0.67,-0.03,-35.85,25.50,-13.80,28.6
2026/04/13 15:04:56.88,IMU,41.99,-29.79,-1018.55,-0.02,-1.74,2.24,-35.85,27.45,-15.30,28.4
2026/04/13 15:04:56.98,IMU,59.08,-35.16,-1010.74,0.63,-1.31,1.22,-35.40,26.70,-14.55,28.6
2026/04/13 15:04:57.08,IMU,63.96,-33.69,-1010.74,1.93,-0.57,1.16,-34.50,26.55,-12.90,28.6
2026/04/13 15:04:57.18,IMU,47.36,-28.81,-1019.04,-1.02,-0.03,0.05,-34.95,26.10,-13.35,28.5
2026/04/13 15:04:57.28,IMU,48.83,-33.20,-1021.00,-0.23,0.69,1.09,-36.00,27.60,-12.60,28.4
2026/04/13 15:04:57.38,IMU,48.34,-39.06,-998.54,0.72,-1.15,-1.46,-35.85,26.70,-13.05,28.5
2026/04/13 15:04:57.48,IMU,51.76,-39.06,-1020.51,1.40,2.50,-2.26,-34.50,27.30,-12.60,28.6
2026/04/13 15:04:57.58,IMU,50.78,-24.41,-1008.79,1.15,2.24,1.57,-34.50,26.85,-13.95,28.5
2026/04/13 15:04:57.68,IMU,37.11,-24.90,-1004.39,0.02,-0.79,2.27,-35.55,27.30,-13.35,28.4
2026/04/13 15:04:57.78,IMU,53.22,-23.93,-1015.63,-0.18,-1.53,-0.18,-33.60,27.00,-13.05,28.6
2026/04/13 15:04:57.88,IMU,44.43,-23.93,-1018.07,0.34,1.18,-3.00,-33.60,26.25,-13.80,28.6
2026/04/13 15:04:57.98,IMU,59.08,-19.53,-1014.16,-0.98,1.50,-0.18,-35.55,26.55,-13.35,28.4
2026/04/13 15:04:58.08,IMU,36.62,-40.04,-1030.76,-0.03,0.83,0.45,-33.75,26.85,-13.95,28.3
2026/04/13 15:04:58.18,IMU,66.89,-7.81,-1012.21,0.91,2.31,-2.57,-36.30,25.80,-13.95,28.5
2026/04/13 15:04:58.28,IMU,54.20,-32.23,-1020.02,-0.07,-0.60,0.59,-35.10,25.95,-13.80,28.6
2026/04/13 15:04:58.38,IMU,53.22,-16.11,-1005.86,-1.95,-1.93,-0.44,-35.10,25.20,-14.25,28.5
2026/04/13 15:04:58.48,IMU,48.34,-29.79,-1014.16,-0.73,0.17,-0.74,-35.55,26.10,-13.35,28.4
2026/04/13 15:04:58.58,IMU,52.73,-27.83,-1018.55,0.85,-0.42,-0.56,-34.65,26.70,-14.85,28.4
2026/04/13 15:04:58.68,IMU,55.66,-29.30,-1008.79,-0.31,0.29,1.21,-35.55,25.35,-14.70,28.6
2026/04/13 15:04:58.78,IMU,47.36,-29.79,-1004.39,0.25,0.50,-0.15,-34.50,27.30,-14.70,28.3
2026/04/13 15:04:58.88,IMU,52.25,-27.34,-1020.51,-1.06,0.82,1.47,-34.20,25.80,-12.90,28.6
2026/04/13 15:04:58.99,IMU,39.55,-24.90,-1018.55,0.95,-1.06,-0.31,-34.95,25.35,-13.95,28.4
2026/04/13 15:04:59.09,IMU,53.71,-26.37,-1016.11,0.70,-0.39,-2.04,-35.85,25.50,-14.55,28.6
2026/04/13 15:04:59.19,IMU,43.95,-21.00,-1016.11,1.48,1.09,0.47,-35.40,27.00,-14.55,28.7
2026/04/13 15:04:59.29,IMU,48.34,20.02,-1281.74,-0.33,19.95,3.67,-32.25,27.30,-17.55,28.5
2026/04/13 15:04:59.39,IMU,63.96,-28.81,-1039.06,1.01,0.38,-2.84,-33.30,25.20,-16.05,28.3
2026/04/13 15:04:59.49,IMU,91.31,-22.95,-1011.72,-0.07,0.01,0.70,-33.60,23.25,-14.85,28.4
2026/04/13 15:04:59.59,IMU,79.10,-69.34,-972.17,1.45,-10.85,-2.30,-33.75,23.10,-16.20,28.8
2026/04/13 15:04:59.69,IMU,85.94,-23.93,-1020.51,1.95,3.61,-0.37,-34.35,22.95,-18.45,28.4
2026/04/13 15:04:59.79,IMU,89.84,69.82,-993.65,1.04,0.08,0.94,-33.90,24.00,-19.65,28.6
2026/04/13 15:04:59.89,IMU,82.03,-2.93,-1131.84,3.09,3.08,-0.46,-34.50,22.65,-19.80,28.6
2026/04/13 15:04:59.99,IMU,103.52,-25.88,-1050.29,0.44,0.00,2.13,-34.20,23.10,-20.55,28.6
2026/04/13 15:05:00.09,IMU,92.29,-25.88,-1008.30,0.53,-1.51,-0.83,-33.75,22.65,-19.05,28.4
2026/04/13 15:05:00.19,IMU,109.86,-29.30,-1004.39,1.31,-0.31,-0.44,-34.50,24.30,-20.10,28.6
2026/04/13 15:05:00.29,IMU,98.14,-29.30,-1007.32,1.34,-0.40,-3.43,-33.60,24.45,-18.90,28.6
2026/04/13 15:05:00.39,IMU,87.89,-14.65,-1022.46,-0.92,-0.15,-0.11,-34.35,23.25,-19.95,28.6
2026/04/13 15:05:00.49,IMU,104.98,-20.51,-918.95,-1.48,1.10,-4.08,-34.20,25.35,-20.10,28.7
2026/04/13 15:05:00.59,IMU,3.91,-27.83,-1014.65,-2.73,4.72,10.98,-33.75,22.65,-19.80,28.6
2026/04/13 15:05:00.69,IMU,186.04,2.93,-966.31,-10.02,2.16,34.94,-35.40,22.95,-21.45,28.4
2026/04/13 15:05:00.79,IMU,32.23,122.56,-901.37,-27.44,18.66,36.82,-35.85,23.25,-21.45,28.4
2026/04/13 15:05:00.89,IMU,-163.09,211.43,-1196.78,-62.96,27.45,93.09,-35.10,25.20,-19.95,28.5
2026/04/13 15:05:00.99,IMU,-137.21,175.29,-770.51,-38.84,-3.01,152.79,-41.10,25.05,-20.10,28.6
2026/04/13 15:05:01.09,IMU,306.15,166.50,-1088.38,-13.47,-47.37,212.48,-46.50,26.25,-18.15,28.4
2026/04/13 15:05:01.19,IMU,65.43,173.83,-875.98,8.10,-18.32,203.03,-49.20,22.65,-19.80,28.4
2026/04/13 15:05:01.29,IMU,-36.62,55.18,-905.27,-46.23,-41.65,194.56,-50.70,12.90,-19.05,28.6
2026/04/13 15:05:01.39,IMU,110.84,80.08,-962.40,3.77,10.88,103.61,-50.40,7.20,-20.85,28.4
2026/04/13 15:05:01.49,IMU,219.73,15.14,-1109.38,12.73,-5.12,69.30,-52.95,5.55,-20.85,28.6
2026/04/13 15:05:01.60,IMU,-287.11,32.23,-946.29,12.02,-19.26,60.09,-52.20,1.50,-19.80,28.3
2026/04/13 15:05:01.70,IMU,25.88,28.81,-1005.37,-3.67,-20.97,55.24,-48.75,-0.15,-22.80,28.8
2026/04/13 15:05:01.80,IMU,227.05,152.34,-1284.18,19.07,-28.85,32.31,-47.25,-0.45,-22.05,28.7
2026/04/13 15:05:01.90,IMU,-21.97,-127.93,-1012.70,50.54,-28.66,19.79,-44.70,-5.10,-21.75,28.4
2026/04/13 15:05:02.00,IMU,42.48,-33.69,-1025.88,-1.24,-7.89,2.90,-46.05,-7.95,-13.35,28.5
2026/04/13 15:05:02.10,IMU,-10.74,-99.61,-780.76,0.65,-0.14,-2.12,-49.05,-8.40,-10.95,28.6
2026/04/13 15:05:02.20,IMU,84.96,-23.93,-1051.76,-1.79,1.35,-2.86,-50.40,-7.50,-13.95,28.2
2026/04/13 15:05:02.30,IMU,-31.25,-23.44,-1181.15,-2.15,-5.83,6.69,-48.45,-6.45,-10.35,28.6
2026/04/13 15:05:02.40,IMU,512.70,-164.55,-828.61,-5.45,24.06,22.86,-49.65,-6.00,-10.35,28.7
2026/04/13 15:05:02.50,IMU,-50.29,-83.01,-1232.42,-11.47,33.96,17.11,-49.35,-9.60,-4.80,28.6
2026/04/13 15:05:02.60,IMU,67.38,-34.67,-1012.21,-2.33,-4.05,3.41,-47.25,-6.90,-9.15,28.5
2026/04/13 15:05:02.70,IMU,-72.27,-70.31,-999.02,-0.74,0.80,13.89,-49.95,-5.55,-10.80,28.6
2026/04/13 15:05:02.80,IMU,83.01,-108.40,-994.14,0.76,3.34,5.15,-49.05,-6.60,-10.20,28.4
2026/04/13 15:05:02.90,IMU,63.96,-36.13,-972.66,-0.38,2.56,0.53,-48.90,-6.45,-11.10,28.3
2026/04/13 15:05:03.00,IMU,-62.50,0.49,-862.30,-1.54,-5.68,-2.89,-47.55,-7.35,-11.25,28.4
2026/04/13 15:05:03.10,IMU,124.51,-8.79,-1031.74,2.85,10.02,11.92,-47.55,-6.60,-13.05,28.3
2026/04/13 15:05:03.20,IMU,95.21,55.66,-1117.68,20.08,26.37,38.68,-48.15,-7.95,-12.60,28.6
2026/04/13 15:05:03.30,IMU,119.63,-41.99,-998.05,1.16,11.24,111.21,-47.55,-8.85,-9.90,28.3
2026/04/13 15:05:03.40,IMU,62.99,-1.46,-978.52,-13.06,25.31,184.79,-44.70,-10.35,-4.05,28.5
2026/04/13 15:05:03.51,IMU,164.55,-136.23,-1337.89,-18.82,5.98,143.07,-38.25,-10.20,4.65,28.5
2026/04/13 15:05:03.61,IMU,-7.32,-128.42,-1068.85,-2.89,3.27,2.58,-36.60,-8.10,4.80,28.6
2026/04/13 15:05:03.71,IMU,159.18,-16.11,-1136.23,-6.61,-3.89,-12.50,-36.60,-7.65,2.70,28.4
2026/04/13 15:05:03.81,IMU,401.37,122.07,-258.79,-19.09,9.55,-28.85,-36.90,-7.35,3.75,28.6
2026/04/13 15:05:03.91,IMU,12.70,-25.39,-1046.88,4.56,-21.37,-24.60,-39.15,-6.60,2.70,28.4
2026/04/13 15:05:04.01,IMU,52.73,-11.23,-1000.98,0.49,-10.23,-24.47,-38.70,-6.15,3.30,28.4
2026/04/13 15:05:04.11,IMU,15.14,-1.95,-1002.44,4.28,-1.77,-22.31,-39.60,-7.20,1.80,28.7
2026/04/13 15:05:04.21,IMU,86.91,-32.71,-996.58,1.54,-7.76,-25.19,-39.00,-8.25,0.00,28.6
2026/04/13 15:05:04.31,IMU,120.61,107.42,-853.52,-0.44,-2.40,10.44,-40.20,-6.15,-0.45,28.2
2026/04/13 15:05:04.41,IMU,250.00,-35.64,-811.04,1.42,5.26,13.51,-40.80,-8.25,-0.60,28.4
2026/04/13 15:05:04.51,IMU,-52.73,-56.64,-1196.29,-0.89,-7.11,12.83,-38.70,-6.60,0.15,28.6
2026/04/13 15:05:04.61,IMU,35.64,-35.16,-1016.60,-1.91,-0.52,-6.57,-39.60,-7.50,0.00,28.4
2026/04/13 15:05:04.71,IMU,64.94,-22.46,-1010.74,-0.95,5.52,3.95,-40.65,-6.60,0.45,28.3
2026/04/13 15:05:04.82,IMU,36.62,-38.09,-1042.48,1.10,2.70,3.20,-39.90,-7.35,0.45,28.6
2026/04/13 15:05:04.92,IMU,71.29,-16.60,-1003.91,3.47,-2.95,2.44,-40.35,-7.20,-0.30,28.7
2026/04/13 15:05:05.02,IMU,-74.22,-46.88,-1063.48,2.83,2.28,16.86,-39.45,-7.65,-0.15,28.3
2026/04/13 15:05:05.12,IMU,169.43,-32.71,-1013.18,5.73,7.63,19.98,-37.80,-6.75,1.05,28.6
2026/04/13 15:05:05.22,IMU,-23.93,-47.85,-973.14,1.70,-0.31,13.25,-38.40,-7.65,1.50,28.6
2026/04/13 15:05:05.32,IMU,-240.23,-81.54,-1007.81,2.98,4.33,-29.20,-38.40,-6.90,0.90,28.6
2026/04/13 15:05:05.42,IMU,143.55,21.97,-1097.66,-5.73,1.89,11.74,-38.40,-6.90,1.95,28.6
2026/04/13 15:05:05.52,IMU,19.53,-36.13,-1029.30,-0.21,0.34,3.92,-37.95,-5.85,0.90,28.5
2026/04/13 15:05:05.62,IMU,62.01,-14.16,-982.91,-9.56,-15.66,6.04,-37.05,-7.20,1.05,28.5
2026/04/13 15:05:05.72,IMU,-50.78,-67.38,-1276.37,0.03,-2.89,-2.21,-37.80,-5.55,1.05,28.4
2026/04/13 15:05:05.82,IMU,45.41,-17.58,-931.15,0.08,-2.92,-1.17,-38.25,-5.25,1.05,28.6
2026/04/13 15:05:05.92,IMU,37.60,-8.79,-1004.39,0.47,3.26,-1.25,-39.00,-6.75,1.05,28.4
2026/04/13 15:05:06.02,IMU,33.20,-19.53,-1013.67,1.84,1.18,-1.68,-38.40,-6.90,0.15,28.6
2026/04/13 15:05:06.12,IMU,42.97,-32.23,-1014.16,0.79,0.90,1.65,-39.30,-5.55,1.05,28.6
2026/04/13 15:05:06.22,IMU,40.04,-20.02,-1020.02,-0.27,-0.08,0.62,-39.90,-4.65,-0.15,28.6
2026/04/13 15:05:06.32,IMU,25.39,-8.30,-1021.00,0.95,-0.90,0.79,-38.25,-6.45,0.30,28.4
2026/04/13 15:05:06.42,IMU,44.43,-23.44,-1013.67,-0.71,0.25,-0.24,-38.40,-6.15,1.95,28.6
2026/04/13 15:05:06.52,IMU,30.76,-23.44,-1006.35,0.98,-0.50,3.49,-38.55,-7.20,1.05,28.7
2026/04/13 15:05:06.62,IMU,33.20,-21.97,-1022.95,1.23,1.04,2.31,-39.00,-6.00,1.35,28.5
2026/04/13 15:05:06.72,IMU,42.48,-21.97,-1019.53,1.03,0.32,-0.01,-37.20,-5.85,-1.20,28.6
2026/04/13 15:05:06.82,IMU,38.57,-28.81,-1007.81,1.19,1.08,1.62,-37.50,-5.55,2.10,28.6
2026/04/13 15:05:06.92,IMU,49.80,-3.42,-1015.14,0.00,1.24,0.69,-39.60,-6.75,0.30,28.4
2026/04/13 15:05:07.02,IMU,39.55,-20.02,-1019.53,0.51,0.08,1.40,-39.60,-7.20,-0.30,28.6
2026/04/13 15:05:07.12,IMU,45.41,-24.90,-1009.28,0.81,1.64,3.17,-37.95,-6.90,0.90,28.7
2026/04/13 15:05:07.22,IMU,35.64,-19.04,-1017.58,-0.20,0.42,1.12,-37.20,-5.85,2.25,28.4
2026/04/13 15:05:07.32,IMU,45.90,-15.14,-1028.32,-0.15,0.92,0.95,-39.00,-6.00,1.80,28.5
2026/04/13 15:05:07.43,IMU,39.55,-15.14,-1004.39,0.15,-2.18,2.18,-39.00,-6.75,1.35,28.6
2026/04/13 15:05:07.53,IMU,24.90,-26.86,-1047.85,2.40,-0.87,-3.27,-38.25,-5.55,0.00,28.4
2026/04/13 15:05:07.63,IMU,58.59,-9.28,-969.24,0.45,6.49,0.89,-37.05,-6.45,-0.30,28.4
2026/04/13 15:05:07.73,IMU,53.22,-43.95,-1024.90,-0.79,1.53,-3.37,-38.25,-6.00,-1.05,28.5
2026/04/13 15:05:07.83,IMU,36.13,-29.79,-1020.02,1.02,0.51,-0.48,-37.95,-7.65,-0.15,28.4
2026/04/13 15:05:07.93,IMU,46.88,-20.02,-994.63,3.37,-2.49,-1.32,-39.15,-5.40,-0.90,28.4
2026/04/13 15:05:08.03,IMU,68.36,-25.39,-968.75,1.36,2.96,0.39,-38.55,-6.00,-0.30,28.6
2026/04/13 15:05:08.13,IMU,48.34,-24.90,-1008.30,0.57,-0.88,-1.69,-37.80,-6.00,0.00,28.6
2026/04/13 15:05:08.23,IMU,49.32,-12.21,-961.91,-0.11,0.47,-0.19,-38.40,-6.15,-0.15,28.6
2026/04/13 15:05:08.33,IMU,62.01,-17.09,-996.09,-0.44,3.65,-0.14,-37.05,-6.75,-0.60,28.7
2026/04/13 15:05:08.43,IMU,45.41,-12.70,-1019.53,0.73,0.56,0.35,-39.30,-5.55,0.60,28.7
2026/04/13 15:05:08.53,IMU,42.97,-24.41,-1005.37,-1.08,3.36,1.46,-38.70,-5.85,-1.20,28.5
2026/04/13 15:05:08.63,IMU,45.41,-6.35,-1005.86,-0.06,0.18,2.11,-37.80,-6.00,-1.35,28.6
2026/04/13 15:05:08.73,IMU,48.83,-21.48,-1008.79,0.21,0.05,-1.56,-36.60,-6.90,-0.45,28.4
2026/04/13 15:05:08.83,IMU,53.71,-9.77,-1011.23,-2.02,0.75,-1.57,-37.05,-6.00,-1.05,28.7
2026/04/13 15:05:08.93,IMU,38.57,-11.72,-1020.51,0.13,-0.44,1.15,-37.65,-6.60,-3.00,28.2
2026/04/13 15:05:09.03,IMU,40.04,-14.16,-1016.11,1.37,1.66,1.55,-37.65,-6.15,-0.90,28.6
2026/04/13 15:05:09.13,IMU,47.85,-27.83,-1020.02,0.99,0.67,3.11,-37.95,-5.40,-1.50,28.4
2026/04/13 15:05:09.23,IMU,43.95,-21.00,-1016.11,0.10,0.48,-0.80,-37.20,-6.15,-0.45,28.4
2026/04/13 15:05:09.33,IMU,51.76,-21.97,-1018.07,1.18,1.50,0.83,-37.50,-5.55,-1.05,28.5
2026/04/13 15:05:09.43,IMU,54.69,-21.00,-1013.18,0.15,0.05,-1.31,-37.95,-5.85,-1.95,28.5
2026/04/13 15:05:09.53,IMU,46.88,-17.09,-1016.11,-0.63,-0.33,1.42,-38.25,-7.50,-0.60,28.6
2026/04/13 15:05:09.63,IMU,41.99,-9.77,-1018.07,-0.73,2.86,-0.73,-37.05,-5.55,-2.85,28.3
2026/04/13 15:05:09.73,IMU,41.02,-16.60,-1008.30,1.76,0.45,-4.46,-37.05,-6.45,0.30,28.6
2026/04/13 15:05:09.83,IMU,38.09,-21.48,-1012.21,-0.59,1.35,-2.32,-36.75,-7.20,-1.05,28.5
2026/04/13 15:05:09.93,IMU,53.22,-24.90,-1016.60,-0.96,-0.72,0.78,-37.65,-7.65,-1.50,28.5
2026/04/13 15:05:10.04,IMU,-18.07,4.88,-1092.77,2.73,3.69,2.26,-37.65,-6.15,-1.50,28.4
2026/04/13 15:05:10.14,IMU,58.59,-7.32,-1010.25,-1.66,-0.07,3.39,-36.90,-9.30,-0.45,28.6
2026/04/13 15:05:10.24,IMU,41.02,-11.72,-1004.39,0.37,0.02,-0.81,-36.30,-6.00,-1.35,28.4
2026/04/13 15:05:10.34,IMU,40.53,-5.37,-1013.67,-0.62,-1.36,0.48,-38.25,-6.75,-1.05,28.5
2026/04/13 15:05:10.44,IMU,51.76,-13.18,-1025.39,-0.75,-1.05,-0.63,-36.90,-6.60,-0.90,28.6
2026/04/13 15:05:10.54,IMU,29.79,-10.74,-1003.42,1.00,0.01,-0.05,-36.75,-7.50,-0.30,28.5
2026/04/13 15:05:10.64,IMU,40.04,-17.09,-1009.77,0.60,0.75,-0.11,-39.90,-6.60,1.95,28.7
2026/04/13 15:05:10.74,IMU,59.08,-28.32,-1016.11,1.36,-1.05,-0.40,-37.95,-8.10,0.45,28.7
2026/04/13 15:05:10.84,IMU,49.80,-12.21,-1010.25,-0.33,0.05,-0.23,-37.95,-5.85,0.45,28.6
2026/04/13 15:05:10.94,IMU,44.43,-15.14,-1023.93,-0.39,0.13,-0.45,-38.25,-7.50,-0.30,28.6
2026/04/13 15:05:11.04,IMU,31.25,-10.74,-1010.25,0.24,1.92,0.76,-36.90,-6.60,-0.15,28.6
2026/04/13 15:05:11.14,IMU,40.04,-22.95,-1008.79,-0.19,1.11,-2.46,-38.25,-6.60,-1.20,28.7
2026/04/13 15:05:11.24,IMU,52.73,-12.70,-996.58,0.77,0.02,-0.67,-37.95,-6.15,-1.20,28.7
2026/04/13 15:05:11.34,IMU,40.04,-8.79,-1008.79,1.65,0.46,1.37,-36.90,-6.75,-1.35,28.6
2026/04/13 15:05:11.44,IMU,48.34,-18.07,-1012.21,0.02,3.22,1.37,-37.65,-6.60,-0.15,28.4
2026/04/13 15:05:11.54,IMU,51.27,-11.72,-1026.37,-0.86,-0.73,-0.73,-38.70,-6.15,-1.20,28.6
2026/04/13 15:05:11.64,IMU,36.62,-21.00,-1007.81,-0.95,1.36,0.85,-41.55,-9.00,2.40,28.6
2026/04/13 15:05:11.75,IMU,45.41,-22.46,-1010.74,-0.51,1.13,-0.02,-37.20,-7.35,-0.45,28.6
2026/04/13 15:05:11.85,IMU,38.57,-18.55,-1019.53,1.11,0.56,2.59,-37.80,-6.75,-1.35,28.5
2026/04/13 15:05:11.95,IMU,54.69,-22.95,-1008.79,-2.17,0.03,0.03,-38.25,-4.80,-0.30,28.6
2026/04/13 15:05:12.05,IMU,-193.85,-61.52,-1171.88,-1.79,3.52,16.31,-38.70,-6.90,0.15,28.6
2026/04/13 15:05:12.15,IMU,66.41,-17.09,-1021.00,-0.67,1.18,3.89,-37.20,-5.85,0.45,28.3
2026/04/13 15:05:12.25,IMU,-201.17,-34.18,-961.43,-3.59,-2.47,27.31,-38.25,-6.00,1.80,28.7
2026/04/13 15:05:12.35,IMU,45.41,-9.28,-1016.11,-0.37,0.09,-0.74,-34.50,-5.25,-0.60,28.6
2026/04/13 15:05:12.45,IMU,28.81,-59.57,-1271.48,1.82,-4.78,-11.54,-36.15,-5.85,1.20,28.6
2026/04/13 15:05:12.55,IMU,45.90,-15.63,-1018.55,-0.37,1.89,1.41,-36.60,-6.15,-0.45,28.2
2026/04/13 15:05:12.65,IMU,58.59,-13.18,-1005.86,-0.33,1.93,1.25,-36.30,-6.00,0.60,28.7
2026/04/13 15:05:12.75,IMU,39.55,-13.18,-1023.93,0.45,-1.15,-0.77,-37.05,-6.00,0.60,28.7
2026/04/13 15:05:12.85,IMU,47.85,-11.72,-1006.84,1.21,0.13,-0.44,-36.90,-6.60,0.45,28.4
2026/04/13 15:05:12.95,IMU,43.46,-24.41,-1012.21,0.33,-0.18,-1.73,-36.30,-6.00,0.30,28.6
2026/04/13 15:05:13.05,IMU,39.55,-32.71,-1008.30,0.15,0.83,-1.08,-36.75,-6.00,1.35,28.5
2026/04/13 15:05:13.15,IMU,47.85,-15.63,-1007.81,0.24,2.15,1.03,-36.75,-6.75,1.05,28.5
2026/04/13 15:05:13.25,IMU,44.43,-18.07,-1008.30,0.52,2.32,1.36,-36.75,-7.50,-0.60,28.6
2026/04/13 15:05:13.35,IMU,41.50,-20.02,-1009.77,0.34,1.64,1.77,-35.10,-6.15,-0.15,28.6
2026/04/13 15:05:13.45,IMU,44.43,-27.34,-1017.58,-0.83,1.78,1.66,-35.10,-6.15,1.95,28.5
2026/04/13 15:05:13.55,IMU,34.67,-22.46,-1019.04,-0.76,-0.28,-2.18,-35.55,-6.75,0.00,28.5
2026/04/13 15:05:13.65,IMU,34.67,-11.72,-1017.09,-1.08,-2.02,0.26,-36.75,-6.45,0.30,28.6
