Timestamp,Sensor,AccX,AccY,AccZ,GyrX,GyrY,GyrZ,MagX,MagY,MagZ,Temp
2026/04/15 14:29:14.00,IMU,-4.39,319.34,-958.50,8.41,0.82,0.09,154.95,110.55,-13.80,29.4
2026/04/15 14:29:14.10,IMU,13.18,267.58,-978.52,9.16,-0.56,3.21,154.50,110.10,-14.70,29.4
2026/04/15 14:29:14.20,IMU,-8.30,260.25,-966.31,-0.18,0.70,-1.14,154.80,110.85,-13.95,29.1
2026/04/15 14:29:14.30,IMU,22.46,251.95,-977.54,-3.16,8.11,5.17,154.95,109.05,-14.55,29.5
2026/04/15 14:29:14.40,IMU,26.86,343.26,-962.40,-16.03,4.01,-14.48,154.80,110.40,-14.40,29.4
2026/04/15 14:29:14.50,IMU,95.70,306.64,-906.25,-11.29,5.27,-0.60,154.35,110.55,-13.80,29.4
2026/04/15 14:29:14.60,IMU,224.61,313.48,-969.24,-7.89,-10.81,16.73,154.05,111.15,-14.70,29.3
2026/04/15 14:29:14.70,IMU,13.18,330.57,-1014.65,6.02,-16.82,6.78,154.50,112.65,-13.65,29.6
2026/04/15 14:29:14.80,IMU,-88.38,308.59,-965.82,22.77,-4.16,-17.89,155.55,111.90,-12.60,29.5
2026/04/15 14:29:14.90,IMU,32.23,213.38,-866.21,6.49,12.15,-8.42,154.80,110.40,-14.40,29.6
2026/04/15 14:29:15.01,IMU,29.30,270.51,-1020.51,-17.25,-2.99,25.34,155.40,108.75,-14.85,29.5
2026/04/15 14:29:15.11,IMU,-6.84,293.95,-1206.54,12.18,1.00,33.56,156.00,110.85,-13.95,29.3
2026/04/15 14:29:15.21,IMU,112.79,150.39,-684.08,20.57,22.76,25.02,153.30,111.90,-13.95,29.2
2026/04/15 14:29:15.31,IMU,21.97,164.06,-859.38,-18.84,-13.98,23.66,151.50,111.60,-13.65,29.4
2026/04/15 14:29:15.41,IMU,-78.12,247.56,-1066.41,-7.41,-17.47,2.82,152.25,113.40,-14.40,29.6
2026/04/15 14:29:15.51,IMU,15.14,318.36,-835.45,-4.91,18.24,-2.17,153.00,113.10,-13.35,29.5
2026/04/15 14:29:15.61,IMU,148.44,319.34,-845.70,4.03,30.54,-21.27,151.35,113.25,-13.80,29.5
2026/04/15 14:29:15.71,IMU,-125.98,96.19,-934.08,-5.79,10.47,-67.85,152.85,111.75,-16.05,29.6
2026/04/15 14:29:15.81,IMU,-292.97,173.83,-1799.80,-4.18,40.76,-38.82,150.75,110.40,-15.75,29.7
2026/04/15 14:29:15.91,IMU,66.89,589.84,-861.33,14.20,26.98,-9.69,146.55,111.00,-15.60,29.4
2026/04/15 14:29:16.01,IMU,227.05,296.88,-814.94,11.54,-48.82,30.44,150.30,113.25,-16.05,29.7
2026/04/15 14:29:16.11,IMU,-159.18,311.04,-985.84,-4.68,-42.15,48.67,151.95,113.10,-12.90,29.5
2026/04/15 14:29:16.21,IMU,-62.99,364.75,-1019.04,-5.78,3.34,-4.75,151.50,114.90,-13.65,29.4
2026/04/15 14:29:16.31,IMU,120.12,352.54,-1006.35,8.74,5.06,-19.87,152.10,114.45,-13.05,29.6
2026/04/15 14:29:16.41,IMU,28.32,270.51,-1084.47,-3.73,5.06,-1.39,152.85,113.25,-13.80,29.4
2026/04/15 14:29:16.51,IMU,23.93,308.11,-947.27,-12.78,-0.56,0.75,150.75,115.35,-13.35,29.4
2026/04/15 14:29:16.61,IMU,59.57,280.27,-1008.30,4.30,-0.32,0.56,151.65,114.00,-13.80,29.4
2026/04/15 14:29:16.71,IMU,40.53,310.06,-890.14,1.30,-5.79,1.89,152.25,114.60,-13.95,29.6
2026/04/15 14:29:16.81,IMU,-9.28,389.65,-1057.13,-8.01,-1.66,9.05,152.25,113.85,-12.60,29.4
2026/04/15 14:29:16.91,IMU,116.21,355.47,-958.98,-0.79,22.75,23.63,151.95,116.85,-14.70,29.6
2026/04/15 14:29:17.01,IMU,87.40,285.64,-906.74,-14.27,-12.37,-20.30,151.05,115.95,-12.75,29.5
2026/04/15 14:29:17.11,IMU,-28.32,312.99,-803.22,-0.96,-22.06,6.37,152.25,115.80,-12.60,29.4
2026/04/15 14:29:17.21,IMU,41.50,453.13,-1297.36,32.80,16.18,1.37,153.00,115.80,-12.15,29.4
2026/04/15 14:29:17.32,IMU,133.30,228.52,-468.75,27.89,-8.10,5.24,152.25,113.85,-14.40,29.6
2026/04/15 14:29:17.42,IMU,43.46,447.27,-1427.73,-23.23,1.47,-18.11,151.65,112.50,-14.55,29.6
2026/04/15 14:29:17.52,IMU,201.17,253.42,-530.76,-9.18,-20.57,-24.94,151.65,112.95,-14.25,29.6
2026/04/15 14:29:17.62,IMU,40.53,405.76,-979.98,1.63,-3.22,-24.56,152.40,112.05,-14.25,29.6
2026/04/15 14:29:17.72,IMU,131.35,310.06,-892.58,2.74,-27.83,-5.89,154.35,113.25,-14.25,29.2
2026/04/15 14:29:17.82,IMU,-15.63,417.48,-783.20,-0.91,-5.22,24.71,154.95,113.25,-13.50,29.4
2026/04/15 14:29:17.92,IMU,-174.32,109.37,-991.21,3.37,-3.08,8.42,155.40,112.95,-13.80,29.4
2026/04/15 14:29:18.02,IMU,-88.38,428.22,-987.30,-9.41,8.70,-5.75,154.65,113.70,-13.80,29.6
2026/04/15 14:29:18.12,IMU,46.39,407.23,-1005.37,-8.56,6.50,0.57,152.40,114.75,-12.75,29.5
2026/04/15 14:29:18.22,IMU,55.66,349.12,-991.21,4.04,-13.80,9.16,152.40,115.20,-13.50,29.3
2026/04/15 14:29:18.32,IMU,8.79,353.03,-941.89,-10.36,0.05,13.35,153.00,114.60,-11.10,29.4
2026/04/15 14:29:18.42,IMU,-136.72,306.15,-1028.32,-2.25,10.86,-0.67,153.15,115.20,-12.00,29.6
2026/04/15 14:29:18.52,IMU,12.21,364.26,-1019.53,-3.64,7.69,-9.52,153.75,116.10,-12.60,29.3
2026/04/15 14:29:18.62,IMU,54.20,374.51,-929.69,7.56,-0.02,-9.95,152.70,114.60,-13.35,29.4
2026/04/15 14:29:18.72,IMU,50.78,342.29,-927.73,0.40,-2.00,8.81,152.70,114.90,-12.90,29.4
2026/04/15 14:29:18.82,IMU,11.23,365.72,-983.89,5.08,-1.87,17.79,153.30,114.60,-11.85,29.2
2026/04/15 14:29:18.92,IMU,30.76,294.43,-887.21,-0.79,-2.56,10.59,152.85,116.25,-12.45,29.1
2026/04/15 14:29:19.02,IMU,2.93,313.96,-968.75,1.88,2.45,2.50,153.30,114.60,-12.15,29.4
2026/04/15 14:29:19.12,IMU,32.71,295.41,-954.10,4.37,2.89,-0.44,152.70,115.35,-12.60,29.4
2026/04/15 14:29:19.22,IMU,27.34,333.50,-921.88,-3.37,-0.02,-2.02,151.35,116.25,-12.00,29.4
2026/04/15 14:29:19.32,IMU,19.04,312.99,-920.41,-0.89,-2.15,-6.60,153.15,115.95,-12.45,29.4
2026/04/15 14:29:19.42,IMU,-1.95,370.12,-991.70,-4.72,0.68,-4.11,153.00,115.80,-12.60,29.1
2026/04/15 14:29:19.53,IMU,34.67,350.59,-937.01,1.39,3.53,-4.27,153.30,116.85,-11.85,29.3
2026/04/15 14:29:19.63,IMU,22.95,383.30,-940.43,-4.15,3.80,-0.54,152.70,117.30,-12.15,29.4
2026/04/15 14:29:19.73,IMU,58.11,401.37,-896.97,0.61,-2.16,-3.47,153.15,115.95,-10.50,29.3
2026/04/15 14:29:19.83,IMU,-38.57,359.38,-992.68,-3.11,-3.45,3.55,153.75,116.10,-12.15,29.4
2026/04/15 14:29:19.93,IMU,12.21,366.70,-961.91,5.56,5.36,15.01,153.30,115.80,-11.55,29.6
2026/04/15 14:29:20.03,IMU,32.23,330.57,-930.18,1.53,-4.78,3.16,151.65,116.25,-12.45,29.4
2026/04/15 14:29:20.13,IMU,-32.71,363.28,-942.38,1.08,6.72,-1.00,150.75,115.80,-12.15,29.4
2026/04/15 14:29:20.23,IMU,23.93,366.70,-923.83,-5.24,6.99,-7.48,152.70,116.10,-12.90,29.5
2026/04/15 14:29:20.33,IMU,83.98,381.35,-924.32,-2.58,7.69,-12.65,152.70,116.85,-13.35,29.1
2026/04/15 14:29:20.43,IMU,34.67,352.54,-937.01,1.62,-4.50,8.51,154.05,115.80,-12.15,29.6
2026/04/15 14:29:20.53,IMU,-2.44,370.61,-954.10,2.21,-2.13,4.62,152.85,115.20,-12.45,29.4
2026/04/15 14:29:20.63,IMU,75.68,345.70,-923.83,0.04,2.40,-2.44,153.75,114.90,-12.15,29.4
2026/04/15 14:29:20.73,IMU,7.81,345.21,-931.64,0.94,-3.53,-4.18,153.15,115.20,-11.70,29.3
2026/04/15 14:29:20.83,IMU,-31.74,356.45,-959.47,-0.75,4.82,3.44,152.70,116.55,-10.35,29.3
2026/04/15 14:29:20.93,IMU,41.02,356.93,-927.25,-0.17,3.87,3.60,152.40,115.95,-12.75,29.3
2026/04/15 14:29:21.03,IMU,10.74,359.38,-943.36,-0.73,-0.31,3.15,152.25,115.80,-12.90,29.5
2026/04/15 14:29:21.13,IMU,23.44,375.00,-962.89,-5.82,-2.52,-0.84,152.85,114.00,-9.45,29.6
2026/04/15 14:29:21.23,IMU,9.77,387.70,-933.59,-2.88,-1.73,2.50,152.40,115.95,-10.50,29.1
2026/04/15 14:29:21.33,IMU,28.81,372.07,-928.71,-1.78,-0.44,-2.48,152.70,115.80,-11.55,29.4
2026/04/15 14:29:21.43,IMU,22.95,370.61,-955.08,3.48,-0.20,0.80,152.40,116.70,-10.50,29.4
2026/04/15 14:29:21.53,IMU,28.32,363.77,-934.08,1.04,3.18,-1.53,152.40,115.95,-12.00,29.5
2026/04/15 14:29:21.63,IMU,41.50,361.33,-934.08,7.10,2.74,4.81,153.75,115.35,-12.90,29.4
2026/04/15 14:29:21.73,IMU,27.83,381.35,-949.71,-1.13,2.27,0.98,152.85,116.25,-13.50,29.2
2026/04/15 14:29:21.84,IMU,18.55,387.70,-942.38,-0.01,1.25,5.31,152.85,115.95,-11.25,29.4
2026/04/15 14:29:21.94,IMU,45.90,386.23,-918.95,-3.09,0.66,1.90,152.10,117.45,-12.00,29.3
2026/04/15 14:29:22.04,IMU,19.53,364.75,-934.08,-3.98,-0.63,-4.17,151.50,118.05,-12.60,29.5
2026/04/15 14:29:22.14,IMU,12.21,351.07,-944.82,-2.00,4.30,-0.72,153.60,113.70,-8.70,29.5
2026/04/15 14:29:22.24,IMU,31.74,381.35,-941.89,-1.87,3.02,-0.61,153.60,115.50,-12.75,29.1
2026/04/15 14:29:22.34,IMU,5.37,354.49,-917.97,-0.83,-5.75,1.79,153.00,118.35,-11.10,29.5
2026/04/15 14:29:22.44,IMU,0.49,368.65,-923.83,-3.61,0.46,3.04,152.40,117.00,-12.45,29.4
2026/04/15 14:29:22.54,IMU,10.74,393.55,-934.57,1.60,-2.11,-2.46,153.75,117.30,-10.80,29.1
2026/04/15 14:29:22.64,IMU,42.48,394.04,-913.09,5.49,3.60,-1.47,153.30,116.55,-11.10,29.3
2026/04/15 14:29:22.74,IMU,11.23,388.18,-919.92,-2.39,-1.73,0.52,153.30,118.05,-11.85,29.2
2026/04/15 14:29:22.84,IMU,20.02,371.58,-930.66,2.92,-2.31,2.24,152.40,116.25,-10.95,29.1
2026/04/15 14:29:22.94,IMU,9.77,347.17,-937.01,1.08,3.99,1.34,153.15,118.20,-10.95,29.6
2026/04/15 14:29:23.04,IMU,-14.16,350.10,-942.87,-1.00,-0.44,-2.10,153.75,117.60,-10.80,29.6
2026/04/15 14:29:23.14,IMU,350.59,51.27,-863.28,-9.82,1.09,37.76,153.15,118.65,-12.00,29.4
2026/04/15 14:29:23.24,IMU,-39.06,60.06,-958.01,-29.21,0.30,54.48,153.90,121.20,-9.90,29.4
2026/04/15 14:29:23.35,IMU,-6.84,180.66,-1056.15,33.82,11.50,51.52,151.05,121.20,-10.20,29.5
2026/04/15 14:29:23.45,IMU,172.85,-124.02,-947.75,65.21,-7.27,51.38,147.60,120.45,-12.75,29.2
2026/04/15 14:29:23.55,IMU,7.81,-185.55,-1014.16,5.21,-25.80,56.63,147.60,118.95,-15.30,29.4
2026/04/15 14:29:23.65,IMU,-52.73,138.67,-1222.66,16.47,-16.32,52.66,146.70,119.85,-14.70,29.3
2026/04/15 14:29:23.75,IMU,131.35,36.13,-1202.64,81.21,-9.60,45.13,145.65,116.10,-16.50,29.4
2026/04/15 14:29:23.85,IMU,123.05,-290.53,-1093.75,33.85,-33.87,54.53,144.75,112.50,-17.40,29.5
2026/04/15 14:29:23.95,IMU,-51.76,38.57,-1250.98,0.08,-41.47,54.95,146.25,112.50,-17.40,29.3
2026/04/15 14:29:24.05,IMU,40.04,118.65,-1289.55,66.33,-26.79,46.81,145.20,112.65,-17.55,29.1
2026/04/15 14:29:24.15,IMU,127.93,-268.55,-1077.15,46.44,-32.74,47.58,145.05,109.05,-18.45,29.4
2026/04/15 14:29:24.25,IMU,-30.76,-67.87,-1076.66,-17.63,-41.45,49.89,146.40,109.65,-20.55,29.2
2026/04/15 14:29:24.35,IMU,-27.34,168.95,-1203.61,25.15,-31.56,45.56,148.35,110.55,-20.25,29.0
2026/04/15 14:29:24.45,IMU,73.73,-172.85,-1004.39,48.62,-21.47,39.66,149.10,106.80,-21.75,29.4
2026/04/15 14:29:24.55,IMU,-32.71,-229.49,-863.28,-11.55,-23.18,47.10,150.00,105.45,-21.60,29.0
2026/04/15 14:29:24.65,IMU,-26.37,45.41,-974.12,-28.23,-12.48,47.21,151.20,111.15,-20.55,29.1
2026/04/15 14:29:24.75,IMU,23.44,104.00,-940.92,23.13,8.65,40.09,149.70,111.60,-19.35,29.5
2026/04/15 14:29:24.85,IMU,-1.95,-160.64,-834.47,24.24,2.64,40.76,148.80,110.55,-21.75,28.9
2026/04/15 14:29:24.95,IMU,4.88,-163.09,-917.97,-32.48,13.33,42.76,148.35,111.75,-21.45,29.1
2026/04/15 14:29:25.05,IMU,-57.13,106.93,-1074.22,-21.99,38.74,40.20,144.90,114.15,-20.85,29.3
2026/04/15 14:29:25.15,IMU,43.95,27.34,-1063.48,38.29,41.59,37.58,140.25,114.45,-20.25,28.9
2026/04/15 14:29:25.25,IMU,93.26,-260.25,-998.05,7.31,29.37,35.74,135.90,110.25,-21.45,29.0
2026/04/15 14:29:25.35,IMU,-61.04,-15.14,-1114.75,-33.85,47.07,39.11,132.75,112.65,-17.55,29.1
2026/04/15 14:29:25.45,IMU,-27.34,146.48,-1244.14,28.82,64.60,32.94,129.30,112.50,-16.35,29.1
2026/04/15 14:29:25.56,IMU,136.23,-207.52,-1122.07,38.40,56.41,35.42,125.10,108.45,-18.00,29.1
2026/04/15 14:29:25.66,IMU,39.06,-144.04,-1163.57,-18.24,39.95,37.69,123.15,106.95,-19.05,29.1
2026/04/15 14:29:25.76,IMU,-55.66,177.25,-1311.52,17.50,52.34,35.33,117.90,108.75,-18.45,29.0
2026/04/15 14:29:25.86,IMU,81.54,-100.10,-1109.86,54.49,49.24,36.45,113.70,102.75,-18.30,29.1
2026/04/15 14:29:25.96,IMU,116.70,-208.98,-1025.39,-0.25,29.78,40.02,108.90,99.45,-17.25,28.9
2026/04/15 14:29:26.06,IMU,-1.46,78.12,-1098.63,-5.64,25.38,41.11,106.95,97.20,-16.95,29.1
2026/04/15 14:29:26.16,IMU,59.08,44.92,-997.07,43.76,25.45,39.48,104.55,93.90,-13.50,28.9
2026/04/15 14:29:26.26,IMU,84.47,-211.43,-864.26,23.86,15.36,40.73,105.75,89.40,-13.05,29.2
2026/04/15 14:29:26.36,IMU,14.65,-121.09,-868.16,-27.85,2.27,45.89,103.50,85.95,-13.05,29.1
2026/04/15 14:29:26.46,IMU,66.41,88.87,-956.54,-14.91,1.55,42.56,104.25,85.50,-13.80,29.3
2026/04/15 14:29:26.56,IMU,52.25,-41.99,-913.57,19.78,0.12,46.02,103.65,82.35,-14.70,29.0
2026/04/15 14:29:26.66,IMU,36.13,-241.70,-893.07,-18.50,-18.31,50.08,106.05,80.25,-14.25,29.0
2026/04/15 14:29:26.76,IMU,17.09,-57.62,-974.61,-63.54,-8.79,47.20,108.30,79.80,-18.45,29.1
2026/04/15 14:29:26.86,IMU,37.11,94.73,-1164.06,-27.84,1.86,45.58,107.70,81.15,-19.35,28.9
2026/04/15 14:29:26.96,IMU,90.82,-150.88,-1089.36,-16.05,-16.31,47.71,110.25,81.15,-20.10,29.1
2026/04/15 14:29:27.06,IMU,28.32,-182.62,-1094.73,-72.47,-16.74,52.27,110.70,81.90,-21.15,28.9
2026/04/15 14:29:27.16,IMU,-36.62,104.00,-1275.88,-62.96,11.37,48.77,114.75,84.60,-21.60,28.6
2026/04/15 14:29:27.26,IMU,89.36,-44.43,-1222.66,-19.19,12.58,43.75,114.90,86.25,-19.95,28.9
2026/04/15 14:29:27.36,IMU,108.40,-205.57,-1120.61,-61.84,-8.31,48.32,114.90,85.95,-19.95,29.1
2026/04/15 14:29:27.46,IMU,-26.37,83.01,-1207.52,-71.13,8.85,50.06,115.80,85.80,-19.35,29.1
2026/04/15 14:29:27.56,IMU,14.16,59.08,-1179.69,-15.59,26.29,45.56,116.55,87.30,-21.15,29.0
2026/04/15 14:29:27.66,IMU,111.82,-192.87,-993.16,-24.96,12.00,47.03,113.10,87.45,-22.50,29.0
2026/04/15 14:29:27.76,IMU,38.57,-41.50,-974.61,-59.47,5.45,47.37,112.65,89.70,-22.80,28.8
2026/04/15 14:29:27.86,IMU,-14.65,136.72,-1049.32,-19.13,13.22,43.79,112.35,89.70,-25.05,29.0
2026/04/15 14:29:27.97,IMU,64.45,-38.09,-901.37,17.47,12.46,46.51,111.75,86.85,-23.70,28.8
2026/04/15 14:29:28.07,IMU,57.13,-164.06,-880.86,-10.03,3.03,48.37,111.60,86.25,-23.55,29.0
2026/04/15 14:29:28.17,IMU,34.18,18.55,-920.90,-26.53,-8.69,49.17,111.75,85.35,-24.15,29.0
2026/04/15 14:29:28.27,IMU,69.34,119.63,-991.21,20.98,-9.15,46.31,111.00,83.40,-21.15,28.9
2026/04/15 14:29:28.37,IMU,55.18,-101.56,-955.57,38.21,-20.80,45.49,115.95,80.25,-24.60,28.9
2026/04/15 14:29:28.47,IMU,36.13,-162.11,-1018.07,-4.31,-33.47,47.73,119.10,77.40,-24.45,29.1
2026/04/15 14:29:28.57,IMU,58.59,84.96,-1136.72,-1.69,-26.01,47.20,121.95,76.80,-23.55,28.6
2026/04/15 14:29:28.67,IMU,76.66,12.70,-1146.48,42.78,-32.99,50.35,124.80,76.05,-22.50,28.9
2026/04/15 14:29:28.77,IMU,56.15,-219.73,-1116.21,13.50,-56.14,48.92,129.15,73.20,-20.85,28.9
2026/04/15 14:29:28.87,IMU,3.42,-2.44,-1212.89,-19.85,-44.81,47.85,132.00,73.65,-20.85,29.0
2026/04/15 14:29:28.97,IMU,49.32,79.10,-1271.97,24.15,-35.47,43.40,137.40,74.55,-21.75,28.9
2026/04/15 14:29:29.07,IMU,70.80,-190.43,-1111.82,16.02,-48.81,48.47,141.45,72.60,-20.70,29.0
2026/04/15 14:29:29.17,IMU,2.93,-86.91,-1101.56,-27.71,-51.87,48.73,145.80,74.10,-19.95,28.8
2026/04/15 14:29:29.27,IMU,-31.25,90.82,-1148.44,-3.79,-27.41,43.66,148.20,78.15,-17.25,28.8
2026/04/15 14:29:29.37,IMU,36.62,-69.34,-1032.23,20.46,-23.95,39.31,154.35,79.50,-17.85,28.9
2026/04/15 14:29:29.47,IMU,42.97,-160.16,-909.67,-17.95,-31.53,43.73,156.90,80.55,-16.05,28.6
2026/04/15 14:29:29.57,IMU,-38.57,40.04,-968.75,-26.53,-17.44,41.50,161.25,84.45,-15.60,28.9
2026/04/15 14:29:29.67,IMU,-42.48,85.45,-974.61,13.02,3.97,36.24,162.60,88.35,-14.70,28.8
2026/04/15 14:29:29.77,IMU,38.57,-123.54,-872.07,20.64,10.60,34.80,162.00,89.40,-13.80,28.9
2026/04/15 14:29:29.87,IMU,11.23,-109.86,-915.04,-15.00,9.98,39.79,162.75,89.70,-15.30,28.9
2026/04/15 14:29:29.97,IMU,-29.79,78.61,-1043.46,-2.22,18.97,36.08,162.00,91.95,-15.30,28.7
2026/04/15 14:29:30.07,IMU,19.53,31.74,-1034.67,42.89,31.62,30.34,160.95,92.70,-16.35,28.9
2026/04/15 14:29:30.17,IMU,10.74,-169.92,-1035.64,30.11,30.41,31.91,159.45,91.65,-17.10,28.7
2026/04/15 14:29:30.28,IMU,10.74,-36.62,-1154.30,-0.63,29.25,36.11,151.95,89.10,-15.15,28.7
2026/04/15 14:29:30.38,IMU,29.79,93.75,-1228.52,39.83,37.57,33.17,155.70,91.65,-19.95,28.8
2026/04/15 14:29:30.48,IMU,26.37,-126.95,-1130.86,56.82,32.90,35.05,152.85,88.65,-18.90,28.7
2026/04/15 14:29:30.58,IMU,18.55,-139.16,-1171.39,17.42,27.63,36.81,151.95,86.10,-19.35,28.8
2026/04/15 14:29:30.68,IMU,37.60,76.66,-1238.77,28.63,33.22,35.02,150.60,88.95,-18.90,28.9
2026/04/15 14:29:30.78,IMU,54.20,-50.29,-1110.35,61.31,30.29,33.60,149.10,88.20,-21.00,28.6
2026/04/15 14:29:30.88,IMU,38.09,-183.11,-1055.18,26.83,10.88,38.93,148.20,83.10,-22.65,28.8
2026/04/15 14:29:30.98,IMU,19.04,-12.21,-1057.13,6.75,15.24,39.85,148.35,84.00,-23.25,28.7
2026/04/15 14:29:31.08,IMU,17.09,44.92,-1057.62,37.14,19.60,34.26,148.80,83.25,-25.05,28.7
2026/04/15 14:29:31.18,IMU,77.64,-139.65,-877.93,31.56,4.82,40.49,147.90,81.60,-23.40,28.7
2026/04/15 14:29:31.29,IMU,39.55,-128.42,-847.17,-14.33,-3.89,43.19,148.20,81.15,-23.70,28.7
2026/04/15 14:29:31.39,IMU,-12.21,32.23,-1012.70,-10.89,4.58,36.53,149.55,83.70,-24.60,28.7
2026/04/15 14:29:31.49,IMU,55.18,-72.27,-836.91,7.64,3.84,40.27,149.85,86.70,-23.55,28.6
2026/04/15 14:29:31.59,IMU,63.96,-219.73,-856.93,-16.42,3.03,39.95,150.60,88.20,-22.80,28.8
2026/04/15 14:29:31.69,IMU,-8.79,-42.97,-1038.57,-53.02,-0.40,43.71,151.05,91.20,-23.25,28.6
2026/04/15 14:29:31.79,IMU,-0.98,62.50,-1138.67,-30.72,9.92,41.09,152.10,95.85,-22.80,28.7
2026/04/15 14:29:31.89,IMU,55.18,-141.11,-1041.50,-18.50,15.57,41.25,152.10,96.90,-21.45,28.8
2026/04/15 14:29:31.99,IMU,30.76,-137.70,-1091.31,-56.24,12.60,41.31,150.30,103.35,-20.25,29.0
2026/04/15 14:29:32.09,IMU,21.97,72.27,-1230.96,-57.51,16.41,43.05,150.45,106.20,-19.05,28.6
2026/04/15 14:29:32.19,IMU,57.13,-27.83,-1171.88,-20.55,24.76,39.34,148.35,109.05,-16.65,28.7
2026/04/15 14:29:32.29,IMU,43.95,-167.97,-1115.72,-41.57,24.78,41.63,147.30,110.55,-18.45,28.7
2026/04/15 14:29:32.39,IMU,13.18,-10.25,-1185.55,-56.48,25.34,41.81,144.00,113.70,-18.45,28.4
2026/04/15 14:29:32.49,IMU,74.71,43.46,-1165.04,-19.82,29.18,43.02,142.50,119.40,-16.35,28.9
2026/04/15 14:29:32.59,IMU,60.06,-113.28,-1041.02,-10.18,22.42,42.49,138.15,117.75,-17.40,28.5
2026/04/15 14:29:32.69,IMU,8.79,-73.73,-1035.64,-40.73,18.29,41.73,135.45,119.70,-15.60,28.3
2026/04/15 14:29:32.79,IMU,50.78,81.05,-1014.65,-22.12,22.94,42.34,132.15,121.95,-13.50,28.7
2026/04/15 14:29:32.89,IMU,97.17,-14.65,-933.11,10.95,15.73,41.79,128.70,123.30,-13.35,28.4
2026/04/15 14:29:33.00,IMU,66.89,-123.05,-901.37,-1.01,-4.77,43.21,126.90,120.30,-14.40,29.0
2026/04/15 14:29:33.10,IMU,35.16,-16.60,-925.78,-16.53,-7.04,47.52,124.05,120.90,-13.05,28.5
2026/04/15 14:29:33.20,IMU,37.60,53.22,-993.16,5.53,-6.48,41.04,123.45,120.15,-13.50,28.6
2026/04/15 14:29:33.30,IMU,102.54,-60.55,-979.00,24.61,-20.39,44.20,120.60,116.10,-15.15,28.6
2026/04/15 14:29:33.40,IMU,77.15,-151.86,-979.00,-5.92,-35.61,46.85,120.45,115.50,-15.60,28.4
2026/04/15 14:29:33.50,IMU,3.42,17.09,-1108.40,-12.67,-36.98,47.02,122.25,115.20,-17.40,28.4
2026/04/15 14:29:33.60,IMU,43.95,24.41,-1154.79,16.58,-32.69,41.95,124.05,112.95,-16.65,28.7
2026/04/15 14:29:33.70,IMU,76.17,-154.79,-1101.56,4.86,-43.43,46.28,123.60,111.90,-17.25,28.6
2026/04/15 14:29:33.80,IMU,22.46,-63.96,-1146.48,-27.55,-50.47,44.71,124.05,111.00,-17.40,28.8
2026/04/15 14:29:33.90,IMU,12.21,54.20,-1240.72,-3.92,-45.01,38.90,127.05,111.30,-17.85,28.7
2026/04/15 14:29:34.00,IMU,42.97,-114.75,-1121.09,5.37,-38.05,40.08,126.15,109.35,-17.25,28.7
2026/04/15 14:29:34.10,IMU,18.55,-119.63,-1087.89,-29.08,-37.85,38.08,126.15,110.10,-19.80,28.7
2026/04/15 14:29:34.20,IMU,9.28,52.25,-1149.41,-22.38,-31.42,36.20,129.30,110.25,-18.45,28.4
2026/04/15 14:29:34.30,IMU,29.79,-29.30,-1043.95,7.19,-25.08,35.26,129.60,110.55,-22.05,28.6
2026/04/15 14:29:34.40,IMU,8.79,-122.07,-949.71,-10.81,-23.00,30.85,130.05,111.00,-21.45,28.7
2026/04/15 14:29:34.50,IMU,-12.70,-15.14,-989.75,-27.20,-11.62,32.80,130.35,111.30,-22.05,28.6
2026/04/15 14:29:34.60,IMU,17.58,62.99,-936.04,0.66,1.21,29.66,129.45,113.10,-21.60,28.6
2026/04/15 14:29:34.70,IMU,25.39,-37.11,-952.15,19.15,1.44,29.47,127.95,112.65,-23.10,28.7
2026/04/15 14:29:34.80,IMU,10.74,-125.49,-922.36,-0.98,4.81,28.32,127.50,110.25,-23.25,28.6
2026/04/15 14:29:34.90,IMU,-21.97,6.84,-1003.42,-1.54,17.45,28.73,127.05,112.95,-21.75,28.5
2026/04/15 14:29:35.00,IMU,11.72,43.95,-1067.87,30.06,25.42,23.60,123.90,108.90,-21.15,28.5
2026/04/15 14:29:35.10,IMU,77.15,-95.70,-1034.18,35.25,20.54,26.27,122.25,105.30,-21.00,28.6
2026/04/15 14:29:35.20,IMU,24.41,-101.56,-1097.17,12.68,22.14,28.04,120.30,102.00,-20.55,28.6
2026/04/15 14:29:35.30,IMU,-17.09,55.18,-1229.98,30.53,28.51,26.34,118.35,101.70,-18.30,28.6
2026/04/15 14:29:35.41,IMU,58.11,-34.18,-1182.13,55.19,35.93,26.53,116.25,98.70,-19.05,28.6
2026/04/15 14:29:35.51,IMU,83.50,-129.88,-1102.05,29.27,22.14,26.31,114.15,96.15,-18.45,28.6
2026/04/15 14:29:35.61,IMU,6.84,16.60,-1188.48,23.18,16.02,28.27,112.95,93.30,-19.35,28.8
2026/04/15 14:29:35.71,IMU,13.18,0.98,-1154.30,50.30,21.02,24.72,109.95,89.10,-19.05,28.5
2026/04/15 14:29:35.81,IMU,60.06,-144.04,-1045.90,40.30,19.60,30.71,110.10,84.45,-21.00,28.5
2026/04/15 14:29:35.91,IMU,44.92,-68.85,-1034.18,9.57,8.58,30.58,108.30,80.25,-19.20,28.5
2026/04/15 14:29:36.01,IMU,26.37,22.46,-1049.80,24.99,7.94,32.51,109.80,79.05,-18.15,28.6
2026/04/15 14:29:36.11,IMU,43.95,-85.94,-941.89,32.09,8.45,32.31,110.10,75.30,-16.65,28.4
2026/04/15 14:29:36.21,IMU,37.60,-152.34,-885.74,3.09,4.42,32.05,110.70,73.20,-16.95,28.5
2026/04/15 14:29:36.31,IMU,21.00,-46.88,-936.52,-15.24,1.90,36.06,110.85,71.85,-16.35,28.2
2026/04/15 14:29:36.41,IMU,31.74,-15.14,-953.61,-0.65,2.76,32.63,111.90,73.05,-17.10,28.6
2026/04/15 14:29:36.51,IMU,26.86,-120.12,-926.27,-4.52,-1.97,31.84,112.95,72.45,-17.25,28.4
2026/04/15 14:29:36.61,IMU,10.74,-126.46,-967.77,-37.17,1.82,33.27,114.90,71.85,-18.15,28.5
2026/04/15 14:29:36.71,IMU,12.70,-0.49,-1069.34,-39.28,11.27,30.92,114.30,73.65,-19.35,28.6
2026/04/15 14:29:36.81,IMU,45.90,-39.06,-1095.70,-21.24,8.86,30.02,114.30,74.70,-20.10,28.6
2026/04/15 14:29:36.91,IMU,48.34,-151.86,-1073.73,-37.09,3.78,31.82,115.35,75.30,-22.50,28.6
2026/04/15 14:29:37.01,IMU,-1.46,-35.64,-1164.06,-55.59,12.21,31.87,117.45,77.55,-21.75,28.5
2026/04/15 14:29:37.11,IMU,13.67,13.18,-1202.15,-36.65,23.94,32.14,117.45,78.00,-21.75,28.2
2026/04/15 14:29:37.21,IMU,85.94,-117.68,-1134.28,-29.65,17.95,28.98,115.65,79.80,-19.95,28.6
2026/04/15 14:29:37.31,IMU,43.95,-82.52,-1116.21,-53.08,13.40,32.54,118.35,81.15,-21.90,28.6
2026/04/15 14:29:37.41,IMU,0.49,24.41,-1157.71,-37.10,20.88,29.27,117.90,81.00,-21.75,28.2
2026/04/15 14:29:37.51,IMU,51.76,-44.92,-1083.50,-14.85,25.80,28.90,117.15,83.25,-22.50,28.6
2026/04/15 14:29:37.61,IMU,81.54,-103.52,-1000.98,-27.63,14.89,30.57,115.95,81.30,-22.80,28.2
2026/04/15 14:29:37.71,IMU,28.81,1.95,-1012.70,-31.69,9.33,31.11,115.35,81.00,-22.80,28.4
2026/04/15 14:29:37.82,IMU,43.46,40.53,-967.77,-4.60,9.01,29.64,115.35,83.25,-23.55,28.5
2026/04/15 14:29:37.92,IMU,57.13,-77.64,-912.11,6.18,5.10,27.91,115.50,83.40,-24.90,28.4
2026/04/15 14:29:38.02,IMU,64.94,-69.34,-913.57,-9.63,-3.01,33.97,113.40,81.00,-24.60,28.3
2026/04/15 14:29:38.12,IMU,58.59,21.00,-984.86,-3.47,-10.41,31.05,116.40,82.50,-25.05,28.1
2026/04/15 14:29:38.22,IMU,44.92,13.18,-1002.44,23.11,-16.43,32.08,117.15,80.25,-23.25,28.1
2026/04/15 14:29:38.32,IMU,62.01,-105.47,-1001.46,19.21,-25.08,32.03,120.60,78.15,-21.90,28.4
2026/04/15 14:29:38.42,IMU,45.41,-62.99,-1052.73,0.74,-27.05,34.61,120.00,76.50,-21.00,28.4
2026/04/15 14:29:38.52,IMU,42.97,29.79,-1143.07,16.63,-29.72,31.73,125.40,77.40,-23.40,28.5
2026/04/15 14:29:38.62,IMU,66.41,-68.85,-1119.63,29.96,-37.15,29.53,128.10,74.85,-22.05,28.4
2026/04/15 14:29:38.72,IMU,39.06,-143.07,-1124.02,6.12,-42.22,34.29,130.50,75.15,-21.15,28.3
2026/04/15 14:29:38.82,IMU,20.51,21.48,-1190.92,4.04,-35.95,31.15,133.20,73.65,-20.55,28.4
2026/04/15 14:29:38.92,IMU,56.15,-20.51,-1151.37,22.85,-34.36,29.22,136.50,72.90,-20.55,28.0
2026/04/15 14:29:39.02,IMU,56.64,-126.95,-1068.36,8.60,-37.36,30.54,140.55,73.20,-20.85,28.3
2026/04/15 14:29:39.12,IMU,3.42,-31.25,-1083.50,-7.91,-36.23,29.40,143.10,72.45,-20.55,28.4
2026/04/15 14:29:39.22,IMU,-7.32,15.14,-1076.17,8.37,-23.99,27.47,146.70,73.20,-20.55,28.6
2026/04/15 14:29:39.32,IMU,35.64,-97.17,-999.51,14.05,-20.33,23.56,150.30,72.30,-18.15,28.4
2026/04/15 14:29:39.42,IMU,12.70,-100.59,-934.57,-8.12,-20.50,25.66,150.45,72.45,-13.95,28.3
2026/04/15 14:29:39.52,IMU,-23.44,8.30,-965.33,-6.42,-9.48,21.47,155.70,74.85,-15.60,28.1
2026/04/15 14:29:39.62,IMU,-10.25,-0.98,-967.29,12.12,4.92,18.63,155.25,78.45,-16.95,28.3
2026/04/15 14:29:39.72,IMU,6.84,-100.10,-928.71,7.35,12.79,18.42,155.40,78.00,-17.40,28.4
2026/04/15 14:29:39.82,IMU,14.65,-75.20,-958.98,-12.54,13.81,18.10,156.00,77.70,-17.25,28.4
2026/04/15 14:29:39.92,IMU,-5.37,15.63,-1046.88,1.65,24.76,20.12,153.90,79.80,-18.15,28.4
2026/04/15 14:29:40.02,IMU,-6.84,-43.46,-1056.64,19.41,34.20,13.09,152.10,78.30,-17.40,28.2
2026/04/15 14:29:40.13,IMU,33.20,-131.35,-1056.64,3.73,35.83,14.75,152.10,78.00,-18.90,28.2
2026/04/15 14:29:40.23,IMU,38.09,-31.74,-1147.46,-3.85,35.83,18.42,148.35,80.25,-19.95,28.3
2026/04/15 14:29:40.33,IMU,12.21,17.09,-1168.95,19.38,37.39,12.52,146.55,79.05,-21.00,28.4
2026/04/15 14:29:40.44,IMU,18.55,-117.68,-1122.07,17.56,40.96,14.21,141.90,74.70,-16.95,27.9
2026/04/15 14:29:40.54,IMU,48.83,-65.43,-1142.58,-1.98,40.64,17.37,143.10,79.35,-21.15,28.4
2026/04/15 14:29:40.64,IMU,50.29,12.21,-1151.37,12.63,38.97,16.33,142.20,79.80,-20.70,28.2
2026/04/15 14:29:40.74,IMU,57.62,-79.59,-1084.96,24.39,33.26,14.71,141.45,78.75,-23.25,28.4
2026/04/15 14:29:40.84,IMU,52.73,-109.86,-1047.85,1.82,25.66,17.52,139.50,76.05,-22.50,28.0
2026/04/15 14:29:40.94,IMU,24.90,-13.67,-998.54,-2.25,26.60,16.88,138.45,77.25,-25.05,28.2
2026/04/15 14:29:41.04,IMU,61.04,-27.34,-980.47,15.48,20.18,16.43,136.05,73.65,-25.20,28.2
2026/04/15 14:29:41.14,IMU,75.68,-119.14,-935.06,9.57,7.97,17.73,135.45,74.10,-25.35,28.3
2026/04/15 14:29:41.24,IMU,41.50,-83.50,-920.90,-12.63,-0.69,19.24,136.65,76.50,-24.30,28.4
2026/04/15 14:29:41.34,IMU,35.64,-2.44,-973.63,-8.67,-3.69,19.51,136.65,76.50,-23.55,28.0
2026/04/15 14:29:41.44,IMU,67.38,-53.22,-973.14,2.95,-7.44,20.45,138.30,76.95,-24.90,28.2
2026/04/15 14:29:41.54,IMU,68.36,-120.61,-953.61,-12.79,-15.77,20.32,141.30,76.95,-24.15,28.3
2026/04/15 14:29:41.64,IMU,41.99,-53.22,-1027.83,-30.99,-24.79,23.81,142.35,80.85,-24.90,28.0
2026/04/15 14:29:41.74,IMU,26.86,-1.95,-1097.66,-17.40,-20.82,22.13,144.90,82.35,-23.40,28.4
2026/04/15 14:29:41.84,IMU,47.85,-124.02,-1006.84,-16.76,-21.70,23.02,147.60,84.45,-20.25,28.2
2026/04/15 14:29:41.94,IMU,62.99,-97.17,-1114.26,-36.40,-29.65,21.94,148.80,85.95,-21.75,28.3
2026/04/15 14:29:42.04,IMU,25.39,15.63,-1171.88,-36.79,-28.74,18.41,149.85,87.45,-19.20,28.1
2026/04/15 14:29:42.14,IMU,36.13,-46.88,-1134.77,-18.77,-24.89,20.73,150.60,91.65,-21.00,27.9
2026/04/15 14:29:42.24,IMU,39.55,-110.35,-1109.38,-31.69,-23.26,21.08,155.25,91.80,-19.05,28.3
2026/04/15 14:29:42.34,IMU,40.53,-26.86,-1105.96,-37.12,-21.38,17.24,157.20,95.10,-17.85,28.0
2026/04/15 14:29:42.44,IMU,21.00,22.46,-1091.80,-18.09,-15.90,18.88,159.00,96.60,-17.85,28.4
2026/04/15 14:29:42.54,IMU,21.48,-78.61,-1009.77,-12.89,-15.56,15.38,159.30,99.75,-17.55,28.3
2026/04/15 14:29:42.64,IMU,21.48,-62.50,-981.45,-26.34,-11.18,16.28,161.10,101.25,-16.95,28.0
2026/04/15 14:29:42.74,IMU,7.81,21.00,-990.72,-16.82,-3.44,14.03,162.45,104.10,-15.60,28.0
2026/04/15 14:29:42.84,IMU,33.69,4.88,-968.26,7.23,-0.96,12.36,162.60,105.15,-15.15,28.1
2026/04/15 14:29:42.95,IMU,19.04,-81.54,-955.08,7.90,3.53,11.54,160.50,105.30,-14.85,28.0
2026/04/15 14:29:43.05,IMU,5.37,-28.32,-964.84,-1.34,2.11,11.11,160.80,105.15,-15.75,27.8
2026/04/15 14:29:43.15,IMU,2.93,26.37,-1022.46,17.47,11.33,10.80,160.95,106.05,-17.10,28.0
2026/04/15 14:29:43.25,IMU,22.46,-30.27,-1021.00,32.20,13.95,9.95,160.35,103.20,-16.50,28.3
2026/04/15 14:29:43.35,IMU,33.20,-76.17,-1066.89,23.17,9.65,9.58,157.80,101.25,-16.50,28.4
2026/04/15 14:29:43.45,IMU,19.53,-6.35,-1104.98,22.85,10.37,10.86,157.80,101.25,-17.25,28.1
2026/04/15 14:29:43.55,IMU,25.88,7.81,-1148.44,42.26,18.46,7.25,155.55,98.70,-19.35,28.3
2026/04/15 14:29:43.65,IMU,37.60,-94.24,-1126.46,44.26,15.86,6.40,153.90,96.90,-19.20,28.0
2026/04/15 14:29:43.75,IMU,34.18,-72.75,-1139.65,25.43,13.36,9.57,153.90,95.85,-18.45,28.2
2026/04/15 14:29:43.85,IMU,51.27,20.51,-1150.39,36.34,12.38,11.18,153.75,96.00,-19.35,28.0
2026/04/15 14:29:43.95,IMU,25.88,-67.38,-1088.87,43.50,12.57,7.42,152.25,93.00,-20.55,28.4
2026/04/15 14:29:44.05,IMU,55.18,-121.09,-1035.16,23.67,11.05,7.69,152.10,93.45,-20.25,27.9
2026/04/15 14:29:44.15,IMU,36.62,-47.85,-1022.46,17.65,7.76,10.44,151.35,90.15,-23.55,28.1
2026/04/15 14:29:44.25,IMU,23.93,-44.43,-1007.32,28.40,8.04,11.46,149.85,88.20,-22.50,28.0
2026/04/15 14:29:44.35,IMU,38.57,-105.47,-959.96,22.08,7.15,10.82,148.20,85.35,-23.40,27.8
2026/04/15 14:29:44.45,IMU,31.74,-93.26,-950.20,-1.47,3.22,13.31,149.55,84.45,-24.00,28.1
2026/04/15 14:29:44.55,IMU,21.48,-33.20,-975.10,-6.30,-0.23,12.51,148.35,86.25,-22.80,28.3
2026/04/15 14:29:44.65,IMU,59.57,-61.52,-960.45,0.73,-0.48,8.81,150.30,87.45,-23.55,28.0
2026/04/15 14:29:44.75,IMU,32.23,-132.32,-941.89,-14.88,-1.10,16.76,150.30,88.20,-23.25,28.0
2026/04/15 14:29:44.85,IMU,26.37,-59.57,-996.09,-31.56,-3.47,13.82,150.60,89.70,-23.55,28.2
2026/04/15 14:29:44.95,IMU,46.88,-29.79,-1058.59,-26.85,-1.21,10.66,151.65,92.70,-23.25,28.2
2026/04/15 14:29:45.05,IMU,37.60,-119.14,-1050.29,-23.44,-0.18,12.23,151.95,95.25,-20.85,27.8
2026/04/15 14:29:45.15,IMU,55.18,-97.17,-1077.15,-41.25,-7.36,13.71,152.10,98.10,-19.95,28.0
2026/04/15 14:29:45.25,IMU,24.90,-17.09,-1170.90,-43.77,-2.66,11.50,152.10,99.15,-18.15,27.8
2026/04/15 14:29:45.36,IMU,39.06,-34.18,-1130.86,-31.45,5.00,10.79,151.95,102.45,-19.05,28.2
2026/04/15 14:29:45.46,IMU,67.38,-95.21,-1093.26,-37.94,-0.30,12.65,153.60,103.05,-17.40,28.0
2026/04/15 14:29:45.56,IMU,31.25,-29.79,-1136.72,-46.01,-2.55,12.84,153.15,107.55,-17.85,27.8
2026/04/15 14:29:45.66,IMU,26.86,7.81,-1102.05,-28.90,3.76,8.86,152.85,109.50,-18.45,28.0
2026/04/15 14:29:45.76,IMU,39.06,-60.55,-1045.90,-21.84,3.15,8.43,153.60,111.00,-17.10,28.1
2026/04/15 14:29:45.86,IMU,63.48,-59.57,-1008.30,-28.73,-2.31,9.97,153.30,113.85,-16.50,28.0
2026/04/15 14:29:45.96,IMU,48.34,9.28,-1023.44,-20.36,-2.55,9.15,153.60,115.95,-16.05,28.0
2026/04/15 14:29:46.06,IMU,24.41,12.70,-963.87,-0.89,0.44,8.56,152.85,117.00,-14.85,27.8
2026/04/15 14:29:46.16,IMU,43.46,-66.89,-953.61,0.88,1.40,5.05,152.40,117.00,-15.60,28.0
2026/04/15 14:29:46.26,IMU,26.37,-32.23,-966.31,-3.65,-1.67,9.29,152.40,118.95,-14.55,27.9
2026/04/15 14:29:46.36,IMU,25.88,29.79,-993.65,10.73,-5.02,7.37,153.00,116.55,-14.70,28.0
2026/04/15 14:29:46.46,IMU,28.32,-29.30,-998.05,27.75,-4.44,6.86,152.10,118.20,-16.35,28.0
2026/04/15 14:29:46.56,IMU,31.25,-70.80,-1023.93,23.16,-5.86,7.32,152.25,113.40,-16.20,27.8
2026/04/15 14:29:46.66,IMU,39.55,-16.11,-1074.71,22.81,-7.24,7.03,151.35,114.00,-17.10,28.0
2026/04/15 14:29:46.76,IMU,49.32,-5.37,-1104.49,37.46,-6.70,2.27,151.50,113.10,-18.75,27.8
2026/04/15 14:29:46.86,IMU,55.66,-66.41,-1118.65,41.08,-7.59,3.23,151.65,108.75,-18.90,28.0
2026/04/15 14:29:46.96,IMU,36.13,-64.45,-1115.23,31.01,-7.28,5.51,150.00,106.20,-17.55,28.0
2026/04/15 14:29:47.06,IMU,44.43,-7.32,-1145.51,37.55,-4.97,3.49,152.70,106.95,-17.55,28.0
2026/04/15 14:29:47.16,IMU,35.16,-55.66,-1114.26,42.58,-4.87,3.44,151.65,103.05,-18.90,28.0
2026/04/15 14:29:47.26,IMU,41.99,-103.03,-1055.66,32.11,-7.37,4.61,150.75,102.45,-19.05,28.0
2026/04/15 14:29:47.36,IMU,19.53,-43.46,-1067.87,22.24,-6.37,3.10,152.10,101.10,-20.70,28.0
2026/04/15 14:29:47.46,IMU,20.51,-45.41,-1041.50,29.67,-0.82,0.85,151.05,98.10,-20.70,27.6
2026/04/15 14:29:47.56,IMU,38.57,-91.31,-987.79,24.78,-0.24,2.25,148.35,95.85,-20.70,28.0
2026/04/15 14:29:47.66,IMU,38.09,-102.54,-939.94,7.02,-3.38,-0.05,150.60,95.40,-23.25,28.0
2026/04/15 14:29:47.76,IMU,17.09,-55.66,-969.24,1.82,-0.79,2.05,151.05,95.40,-22.50,27.9
2026/04/15 14:29:47.87,IMU,35.64,-61.52,-947.75,6.63,2.75,-4.54,151.35,94.65,-22.05,27.8
2026/04/15 14:29:47.97,IMU,37.60,-115.23,-946.29,-6.82,5.19,-0.77,151.05,94.35,-22.05,28.0
2026/04/15 14:29:48.07,IMU,22.46,-63.96,-972.66,-23.37,4.27,2.40,150.00,96.00,-21.60,28.0
2026/04/15 14:29:48.17,IMU,29.79,-24.90,-1030.76,-21.61,5.56,-0.68,150.60,98.10,-22.50,27.8
2026/04/15 14:29:48.27,IMU,18.07,-81.54,-1053.22,-19.60,6.24,-3.29,150.30,99.15,-22.05,28.0
2026/04/15 14:29:48.37,IMU,34.67,-117.19,-1100.59,-34.44,7.76,-2.28,151.50,102.00,-21.15,28.0
2026/04/15 14:29:48.47,IMU,46.39,5.37,-1172.36,-38.99,5.73,1.34,151.35,104.10,-19.95,28.0
2026/04/15 14:29:48.57,IMU,30.76,-55.18,-1068.85,-29.93,9.52,0.15,148.35,102.30,-14.55,28.0
2026/04/15 14:29:48.67,IMU,30.76,-79.59,-1141.11,-34.12,8.60,-1.66,149.55,105.60,-17.85,27.6
2026/04/15 14:29:48.77,IMU,44.43,-55.18,-1130.37,-43.08,6.63,1.13,150.30,107.55,-19.65,27.8
2026/04/15 14:29:48.87,IMU,41.02,-1.95,-1113.28,-30.86,5.84,-4.31,149.70,111.15,-17.25,27.8
2026/04/15 14:29:48.97,IMU,35.64,-59.57,-1067.87,-23.24,4.47,-6.15,150.30,112.95,-17.40,28.0
2026/04/15 14:29:49.07,IMU,41.02,-66.89,-1043.46,-30.15,3.89,-1.63,150.00,114.60,-17.25,28.0
2026/04/15 14:29:49.17,IMU,18.55,0.98,-1024.41,-22.87,2.02,-2.02,151.05,115.50,-15.30,28.0
2026/04/15 14:29:49.27,IMU,35.16,-24.90,-989.26,-8.21,3.15,-5.59,150.75,118.05,-15.15,27.8
2026/04/15 14:29:49.37,IMU,41.02,-49.80,-943.36,-2.92,-0.54,-3.30,151.65,117.00,-15.60,27.8
2026/04/15 14:29:49.47,IMU,29.79,-33.20,-961.43,-6.93,-2.89,-5.79,151.50,118.35,-16.50,28.2
2026/04/15 14:29:49.59,IMU,21.00,11.72,-992.19,8.22,-0.77,-5.31,148.20,116.10,-11.10,28.4
2026/04/15 14:29:49.69,IMU,31.25,-30.27,-988.77,21.49,-0.96,-6.54,151.35,117.75,-16.35,28.0
2026/04/15 14:29:49.79,IMU,39.06,-56.64,-1015.14,18.56,-2.48,-3.61,152.85,115.20,-17.10,27.6
2026/04/15 14:29:49.89,IMU,29.30,-13.18,-1057.13,20.37,-6.92,-5.85,153.00,113.85,-18.00,28.0
2026/04/15 14:29:49.99,IMU,23.93,-3.42,-1083.01,35.70,-4.68,-7.01,153.30,113.10,-18.30,27.8
2026/04/15 14:29:50.09,IMU,45.41,-70.80,-1076.17,37.90,-0.45,-11.73,153.60,108.30,-18.90,28.0
2026/04/15 14:29:50.19,IMU,42.97,-67.87,-1115.23,30.78,-4.09,-7.46,153.15,105.60,-18.90,27.8
2026/04/15 14:29:50.29,IMU,39.06,-21.48,-1138.67,38.05,-2.10,-7.18,152.85,102.60,-19.95,28.1
2026/04/15 14:29:50.39,IMU,22.46,-47.85,-1125.00,43.29,0.58,-7.29,153.15,101.55,-17.85,28.0
2026/04/15 14:29:50.49,IMU,44.43,-88.38,-1074.22,31.09,0.82,-9.42,153.00,100.20,-19.05,28.0
2026/04/15 14:29:50.59,IMU,40.04,-46.88,-1068.36,27.08,0.34,-7.76,152.40,98.40,-21.00,28.0
2026/04/15 14:29:50.69,IMU,21.00,-47.85,-1037.11,31.11,1.50,-10.95,151.65,96.60,-20.70,28.1
2026/04/15 14:29:50.79,IMU,32.23,-80.08,-990.23,25.16,1.85,-7.31,151.20,94.50,-22.35,27.7
2026/04/15 14:29:50.89,IMU,40.04,-73.24,-987.79,9.99,2.89,-12.21,150.75,92.55,-23.10,27.9
2026/04/15 14:29:50.99,IMU,21.97,-41.02,-973.63,8.01,1.67,-10.24,149.55,89.40,-23.55,28.0
2026/04/15 14:29:51.09,IMU,36.13,-66.41,-943.36,7.26,3.46,-9.52,149.55,89.70,-23.55,28.0
2026/04/15 14:29:51.19,IMU,44.92,-108.89,-942.87,-4.18,0.46,-10.55,149.25,90.30,-23.10,27.8
2026/04/15 14:29:51.29,IMU,23.93,-68.85,-975.59,-18.05,-0.69,-8.60,149.25,90.60,-24.45,27.9
2026/04/15 14:29:51.39,IMU,43.46,-45.41,-998.05,-18.94,-0.30,-11.13,150.45,91.05,-23.70,28.2
2026/04/15 14:29:51.49,IMU,34.67,-75.68,-1014.65,-20.09,-2.16,-9.30,149.70,93.00,-21.90,28.0
2026/04/15 14:29:51.59,IMU,38.09,-107.91,-1017.58,-32.20,-6.28,-7.07,150.45,96.00,-20.85,28.2
2026/04/15 14:29:51.69,IMU,36.13,11.23,-1161.13,-35.02,-9.57,-7.25,152.40,96.15,-20.25,27.9
2026/04/15 14:29:51.79,IMU,41.02,-84.47,-1043.46,-27.79,-3.63,-8.94,152.85,97.35,-19.20,28.0
2026/04/15 14:29:51.89,IMU,55.66,-87.40,-1122.07,-33.95,-8.09,-11.37,152.85,98.85,-18.45,27.8
2026/04/15 14:29:51.99,IMU,40.53,-20.02,-1110.35,-40.92,-11.69,-10.05,152.70,98.25,-19.05,27.8
2026/04/15 14:29:52.09,IMU,27.34,-4.88,-1120.61,-32.37,-8.54,-10.30,153.60,101.85,-18.90,28.1
2026/04/15 14:29:52.20,IMU,45.41,-55.18,-1067.87,-26.12,-8.34,-14.05,154.05,103.65,-18.00,28.0
2026/04/15 14:29:52.30,IMU,41.02,-40.53,-1055.18,-28.12,-7.86,-12.02,156.30,102.75,-17.55,28.0
2026/04/15 14:29:52.40,IMU,33.69,-7.81,-1047.85,-23.63,-9.08,-11.85,156.75,106.20,-17.25,27.8
2026/04/15 14:29:52.50,IMU,25.88,-22.46,-1013.67,-10.20,-5.52,-12.15,158.40,106.80,-17.40,28.0
2026/04/15 14:29:52.60,IMU,24.90,-42.97,-981.45,-7.19,-3.02,-12.73,160.20,106.05,-16.05,27.6
2026/04/15 14:29:52.70,IMU,31.25,-33.20,-969.24,-8.71,-5.27,-16.06,160.20,107.55,-16.05,27.8
2026/04/15 14:29:52.80,IMU,31.25,-3.42,-976.56,3.85,-1.36,-15.55,161.10,107.70,-15.75,27.9
2026/04/15 14:29:52.90,IMU,19.53,-25.39,-975.59,15.22,3.50,-14.92,160.95,105.60,-16.35,27.9
2026/04/15 14:29:53.00,IMU,26.37,-64.94,-983.89,14.32,6.13,-16.98,160.35,105.15,-16.95,27.9
2026/04/15 14:29:53.10,IMU,19.04,-23.93,-1032.23,16.30,7.31,-18.68,160.35,103.65,-16.95,27.9
2026/04/15 14:29:53.20,IMU,2.93,-5.37,-1074.22,26.79,13.66,-21.50,157.80,99.45,-17.25,27.8
2026/04/15 14:29:53.30,IMU,27.83,-53.71,-1068.36,32.50,17.02,-17.11,158.10,97.50,-17.55,27.9
2026/04/15 14:29:53.40,IMU,39.06,-56.15,-1083.01,24.80,17.19,-20.27,156.90,95.85,-18.90,27.9
2026/04/15 14:29:53.50,IMU,19.53,-25.39,-1121.58,29.35,17.68,-14.61,154.65,93.90,-20.25,27.8
2026/04/15 14:29:53.60,IMU,39.06,-44.92,-1101.07,34.51,21.15,-22.84,152.70,89.85,-20.10,27.8
2026/04/15 14:29:53.70,IMU,38.57,-86.43,-1083.01,26.44,22.92,-20.17,152.85,89.40,-18.90,27.8
2026/04/15 14:29:53.80,IMU,31.25,-46.88,-1084.47,21.19,18.19,-18.32,150.30,86.25,-21.45,27.8
2026/04/15 14:29:53.90,IMU,38.57,-48.83,-1067.38,23.25,20.78,-16.56,148.65,86.10,-20.85,27.9
2026/04/15 14:29:54.00,IMU,44.92,-63.48,-1005.86,19.12,19.48,-17.54,147.00,83.25,-22.80,27.6
2026/04/15 14:29:54.10,IMU,53.71,-90.33,-971.68,9.98,14.51,-19.68,144.15,80.40,-23.40,27.8
2026/04/15 14:29:54.20,IMU,56.15,-43.46,-991.21,7.40,10.88,-17.54,143.40,79.65,-24.45,27.8
2026/04/15 14:29:54.30,IMU,39.55,-84.96,-909.67,8.11,7.18,-16.21,141.60,78.90,-23.10,27.8
2026/04/15 14:29:54.40,IMU,53.71,-83.50,-954.10,0.32,1.69,-16.95,140.85,77.40,-25.50,28.0
2026/04/15 14:29:54.50,IMU,56.15,-44.43,-972.17,-9.41,-5.62,-15.76,140.25,79.50,-23.55,27.8
2026/04/15 14:29:54.60,IMU,67.87,-35.16,-974.12,-6.73,-13.84,-14.38,140.85,79.65,-23.40,27.7
2026/04/15 14:29:54.71,IMU,56.15,-58.59,-1000.98,-5.81,-13.61,-12.69,141.60,78.90,-23.70,27.6
2026/04/15 14:29:54.81,IMU,34.18,-82.52,-1027.34,-15.12,-22.08,-12.99,143.85,81.15,-23.10,27.8
2026/04/15 14:29:54.91,IMU,42.48,-40.53,-1081.05,-17.15,-26.89,-14.40,143.40,81.60,-21.60,28.1
2026/04/15 14:29:55.01,IMU,34.67,-9.28,-1160.16,-11.66,-28.87,-13.75,145.50,79.80,-21.00,28.0
2026/04/15 14:29:55.11,IMU,50.29,-89.36,-1077.64,-13.53,-30.69,-14.83,146.40,82.35,-19.35,27.6
2026/04/15 14:29:55.21,IMU,35.64,-83.98,-1086.91,-15.82,-31.87,-12.96,147.00,81.75,-19.95,28.0
2026/04/15 14:29:55.31,IMU,35.16,-21.48,-1126.46,-9.66,-32.78,-16.93,148.20,83.10,-20.10,27.9
2026/04/15 14:29:55.41,IMU,29.79,-45.90,-1083.01,-5.79,-32.27,-20.08,149.85,83.70,-20.70,27.8
2026/04/15 14:29:55.51,IMU,26.86,-66.89,-1063.48,-9.15,-27.47,-19.63,153.00,83.40,-19.35,27.8
2026/04/15 14:29:55.61,IMU,19.04,-29.79,-1059.57,-7.78,-26.37,-16.79,153.75,83.10,-18.00,27.6
2026/04/15 14:29:55.71,IMU,-1.95,-37.60,-1029.30,1.82,-19.82,-20.34,152.25,83.10,-17.25,27.9
2026/04/15 14:29:55.81,IMU,10.74,-52.25,-994.14,0.67,-15.79,-20.82,154.95,79.80,-17.85,27.9
2026/04/15 14:29:55.91,IMU,3.91,-42.97,-979.00,-2.84,-11.27,-24.12,155.55,81.15,-17.55,27.8
2026/04/15 14:29:56.01,IMU,16.60,-20.51,-975.10,3.55,-2.31,-24.15,156.90,79.80,-17.40,28.0
2026/04/15 14:29:56.11,IMU,8.30,-52.73,-970.70,9.82,5.68,-24.96,153.60,79.05,-18.15,27.6
2026/04/15 14:29:56.21,IMU,18.07,-76.66,-981.45,4.26,11.15,-26.75,153.75,75.90,-19.35,27.8
2026/04/15 14:29:56.31,IMU,22.46,-31.25,-1001.95,1.16,16.47,-24.36,151.35,75.30,-18.15,27.6
2026/04/15 14:29:56.41,IMU,8.30,-16.60,-1031.74,5.43,21.34,-30.85,149.10,74.85,-21.00,27.8
2026/04/15 14:29:56.51,IMU,7.32,-64.45,-1042.48,3.53,27.50,-30.60,145.80,74.55,-19.65,27.7
2026/04/15 14:29:56.61,IMU,33.20,-69.82,-1061.52,-4.72,29.46,-31.19,144.30,74.10,-21.45,27.7
2026/04/15 14:29:56.71,IMU,27.83,-30.76,-1109.38,-5.12,29.64,-29.51,137.70,73.05,-18.45,27.9
2026/04/15 14:29:56.81,IMU,26.86,-56.15,-1098.14,-1.34,30.18,-29.60,137.70,73.80,-21.00,27.9
2026/04/15 14:29:56.91,IMU,47.85,-68.85,-1096.68,-8.68,34.95,-31.21,133.80,73.65,-21.90,27.6
2026/04/15 14:29:57.01,IMU,41.99,-44.43,-1072.27,-15.82,31.58,-31.57,130.80,74.10,-21.75,27.8
2026/04/15 14:29:57.11,IMU,48.34,-32.71,-1072.75,-8.10,26.36,-35.21,129.60,74.55,-19.95,27.8
2026/04/15 14:29:57.21,IMU,60.06,-65.43,-1034.67,-6.22,21.30,-31.69,128.40,74.70,-21.15,27.6
2026/04/15 14:29:57.32,IMU,58.11,-46.39,-1012.70,-14.40,19.40,-28.23,126.15,74.70,-22.65,28.0
2026/04/15 14:29:57.42,IMU,54.69,-21.00,-1010.74,-9.34,14.96,-30.34,123.75,77.55,-22.50,27.8
2026/04/15 14:29:57.52,IMU,48.83,-26.37,-975.10,-1.13,7.54,-29.24,121.20,78.00,-24.00,27.9
2026/04/15 14:29:57.62,IMU,50.29,-66.89,-960.94,-0.39,2.21,-31.24,121.35,78.45,-24.15,28.0
2026/04/15 14:29:57.72,IMU,53.22,-34.67,-958.98,-1.60,-4.92,-27.79,117.90,78.30,-21.45,27.9
2026/04/15 14:29:57.82,IMU,50.29,-5.37,-985.35,9.67,-8.04,-32.37,120.45,79.80,-24.00,27.8
2026/04/15 14:29:57.92,IMU,53.71,-30.76,-995.61,15.47,-9.79,-28.22,121.20,80.25,-23.55,27.8
2026/04/15 14:29:58.02,IMU,60.06,-45.90,-1005.37,17.37,-16.31,-27.19,120.75,79.05,-21.75,28.0
2026/04/15 14:29:58.12,IMU,43.46,-18.07,-1042.48,15.46,-18.41,-28.84,121.65,79.65,-21.15,27.7
2026/04/15 14:29:58.22,IMU,31.74,-6.35,-1070.31,30.21,-18.57,-29.63,121.50,79.50,-20.25,27.8
2026/04/15 14:29:58.32,IMU,48.34,-72.75,-1077.64,28.63,-16.82,-30.65,122.10,79.65,-21.15,27.7
2026/04/15 14:29:58.42,IMU,50.29,-35.64,-1118.16,24.75,-16.36,-32.42,121.35,77.70,-21.60,27.9
2026/04/15 14:29:58.52,IMU,26.37,-29.79,-1105.96,32.00,-15.39,-34.38,121.05,78.15,-20.55,27.5
2026/04/15 14:29:58.62,IMU,44.92,-60.06,-1097.17,36.95,-14.62,-32.95,121.35,74.70,-22.35,27.9
2026/04/15 14:29:58.73,IMU,41.50,-75.20,-1062.50,27.32,-8.56,-30.68,119.70,74.55,-20.70,27.6
2026/04/15 14:29:58.83,IMU,31.74,-42.48,-1060.55,25.25,-7.89,-32.57,118.80,74.40,-20.10,27.7
2026/04/15 14:29:58.93,IMU,24.90,-31.25,-1039.06,27.54,-5.44,-30.75,116.40,72.30,-21.00,27.7
2026/04/15 14:29:59.03,IMU,31.74,-72.75,-986.82,20.69,-2.44,-35.22,116.55,73.20,-19.80,28.0
2026/04/15 14:29:59.13,IMU,29.79,-70.80,-987.30,9.34,2.27,-33.47,115.80,72.45,-19.35,27.5
2026/04/15 14:29:59.23,IMU,40.04,-54.20,-971.19,7.87,-0.89,-35.01,115.65,72.30,-18.15,27.8
2026/04/15 14:29:59.33,IMU,29.79,-64.94,-964.36,4.95,1.43,-34.76,112.95,72.90,-19.05,27.5
2026/04/15 14:29:59.43,IMU,42.48,-86.91,-960.94,-6.64,0.47,-36.16,112.35,73.80,-18.45,27.7
2026/04/15 14:29:59.53,IMU,39.55,-53.22,-992.19,-16.15,-1.54,-34.61,109.95,75.45,-19.80,27.5
2026/04/15 14:29:59.63,IMU,34.18,-41.50,-1010.25,-15.10,-3.98,-34.15,110.55,78.30,-20.25,27.6
2026/04/15 14:29:59.74,IMU,56.15,-73.73,-1016.11,-19.69,-6.38,-33.57,110.70,80.85,-19.05,27.6
2026/04/15 14:29:59.84,IMU,50.29,-58.59,-1061.04,-28.60,-8.42,-33.18,110.10,84.00,-20.25,27.8
2026/04/15 14:29:59.94,IMU,48.34,-49.80,-1082.52,-27.47,-9.61,-34.37,111.30,87.75,-21.00,27.7
2026/04/15 14:30:00.04,IMU,44.92,-61.04,-1086.43,-24.36,-14.56,-35.23,111.30,90.45,-21.00,27.8
2026/04/15 14:30:00.14,IMU,46.88,-59.57,-1080.08,-27.77,-15.22,-32.73,112.50,92.55,-20.10,27.6
2026/04/15 14:30:00.24,IMU,26.86,-16.60,-1102.05,-29.58,-20.35,-33.03,114.90,95.40,-19.20,27.6
2026/04/15 14:30:00.34,IMU,37.60,-41.02,-1084.96,-17.57,-21.26,-37.68,117.00,99.00,-19.05,27.5
2026/04/15 14:30:00.44,IMU,32.71,-50.78,-1053.71,-17.18,-17.69,-34.08,116.70,99.90,-18.45,27.8
2026/04/15 14:30:00.55,IMU,28.32,-40.53,-1040.53,-18.91,-18.70,-34.02,119.40,101.85,-20.70,27.5
2026/04/15 14:30:00.65,IMU,14.16,-12.21,-1024.90,-7.90,-17.02,-36.21,121.20,104.10,-22.05,27.6
2026/04/15 14:30:00.75,IMU,14.16,-34.67,-1006.35,-1.39,-12.01,-38.05,122.40,105.45,-22.65,27.5
2026/04/15 14:30:00.85,IMU,18.55,-46.88,-972.66,0.31,-7.11,-38.31,123.75,106.80,-21.00,27.6
2026/04/15 14:30:00.95,IMU,16.11,-28.81,-976.56,-0.69,-4.73,-40.96,124.65,106.95,-21.60,27.4
2026/04/15 14:30:01.05,IMU,8.79,-20.02,-983.89,9.67,3.82,-39.56,126.45,108.15,-21.15,27.7
2026/04/15 14:30:01.15,IMU,2.44,-47.36,-987.79,11.40,10.98,-40.44,127.65,108.90,-21.60,27.5
2026/04/15 14:30:01.25,IMU,24.90,-58.11,-999.51,7.19,15.76,-42.90,126.45,108.45,-21.90,27.6
2026/04/15 14:30:01.35,IMU,5.37,-27.34,-1041.02,10.32,18.82,-42.71,127.20,108.15,-20.55,27.9
2026/04/15 14:30:01.45,IMU,20.02,-32.71,-1020.51,13.50,25.37,-44.47,126.90,109.65,-20.10,27.8
2026/04/15 14:30:01.55,IMU,17.09,-72.75,-1037.11,7.84,28.47,-44.81,128.55,109.05,-19.20,27.6
2026/04/15 14:30:01.65,IMU,23.93,-41.50,-1083.50,0.89,31.50,-43.89,127.80,110.25,-18.15,27.5
2026/04/15 14:30:01.75,IMU,35.16,-21.97,-1110.84,0.66,31.40,-44.53,127.65,111.15,-18.75,27.8
2026/04/15 14:30:01.85,IMU,34.67,-59.08,-1090.82,2.09,32.42,-44.96,126.15,110.10,-19.35,27.5
2026/04/15 14:30:01.95,IMU,58.59,-68.85,-1067.38,-6.18,29.76,-43.89,127.20,112.35,-19.05,27.5
2026/04/15 14:30:02.05,IMU,60.55,-30.76,-1068.36,-7.25,24.95,-44.20,126.30,113.70,-18.45,27.8
2026/04/15 14:30:02.15,IMU,35.16,-41.50,-1044.43,-2.46,21.52,-45.50,126.45,115.35,-17.55,27.6
2026/04/15 14:30:02.25,IMU,42.48,-59.57,-1009.77,-6.18,16.69,-45.98,127.95,115.35,-16.50,27.7
2026/04/15 14:30:02.35,IMU,53.71,-40.53,-992.19,-8.02,10.23,-43.59,129.15,118.35,-14.70,27.6
2026/04/15 14:30:02.45,IMU,47.85,-25.88,-983.89,-1.27,4.47,-43.42,129.45,119.55,-17.25,27.8
2026/04/15 14:30:02.55,IMU,41.02,-38.57,-963.38,1.69,1.34,-40.72,133.20,119.55,-16.50,27.5
2026/04/15 14:30:02.65,IMU,57.13,-48.83,-969.73,1.69,-4.75,-45.99,134.10,120.45,-15.60,27.6
2026/04/15 14:30:02.75,IMU,48.34,-18.55,-998.54,6.66,-11.31,-38.92,136.80,121.05,-16.50,27.5
2026/04/15 14:30:02.85,IMU,42.48,-28.32,-1001.46,14.42,-14.82,-42.37,138.60,118.80,-15.75,27.6
2026/04/15 14:30:02.95,IMU,39.06,-54.20,-1013.67,19.29,-13.16,-40.24,141.30,119.10,-16.20,27.9
2026/04/15 14:30:03.05,IMU,35.16,-45.90,-1056.15,19.37,-16.37,-40.32,144.15,115.80,-18.00,27.8
2026/04/15 14:30:03.15,IMU,38.09,-16.60,-1071.78,25.69,-14.87,-39.89,146.25,115.50,-18.15,27.5
2026/04/15 14:30:03.26,IMU,38.57,-41.99,-1082.03,34.17,-11.60,-40.34,148.65,112.35,-16.50,27.7
2026/04/15 14:30:03.36,IMU,54.20,-66.89,-1094.73,31.21,-11.07,-44.97,147.60,110.55,-17.10,27.7
2026/04/15 14:30:03.46,IMU,40.04,-38.57,-1093.26,30.40,-10.69,-41.43,150.30,107.25,-17.10,27.8
2026/04/15 14:30:03.56,IMU,15.14,-27.83,-1094.73,35.47,-5.26,-45.34,151.20,103.95,-16.50,27.6
2026/04/15 14:30:03.66,IMU,25.88,-61.04,-1056.15,31.04,-3.96,-44.53,152.10,103.05,-19.20,27.6
2026/04/15 14:30:03.76,IMU,37.60,-60.55,-1038.09,26.35,-2.56,-45.35,151.95,100.50,-20.10,27.6
2026/04/15 14:30:03.86,IMU,28.32,-33.69,-1016.60,23.22,0.52,-44.11,151.95,99.00,-21.60,27.5
2026/04/15 14:30:03.96,IMU,37.60,-63.96,-994.14,20.56,4.13,-40.37,150.45,92.55,-22.65,27.5
2026/04/15 14:30:04.06,IMU,42.48,-76.66,-991.70,9.39,4.22,-45.22,149.85,91.20,-22.05,27.4
2026/04/15 14:30:04.16,IMU,54.69,-64.45,-953.13,3.13,1.69,-43.42,150.00,91.50,-23.40,27.6
2026/04/15 14:30:04.26,IMU,35.16,-54.20,-971.19,2.60,-2.70,-42.27,148.65,88.80,-22.65,27.5
2026/04/15 14:30:04.36,IMU,36.62,-67.87,-977.54,-2.58,-0.79,-44.53,148.95,86.10,-23.70,27.7
2026/04/15 14:30:04.46,IMU,57.62,-75.68,-979.49,-10.94,-5.08,-40.69,148.05,86.70,-23.25,27.8
2026/04/15 14:30:04.56,IMU,52.25,-26.86,-1022.95,-15.73,-11.40,-39.14,147.60,87.75,-22.80,27.6
2026/04/15 14:30:04.66,IMU,44.92,-41.02,-1042.97,-14.19,-16.56,-42.56,148.35,86.25,-22.80,27.5
2026/04/15 14:30:04.76,IMU,43.46,-74.22,-1045.41,-17.40,-19.29,-37.98,148.80,88.20,-21.00,27.5
2026/04/15 14:30:04.86,IMU,45.41,-37.11,-1070.31,-19.73,-21.53,-37.76,148.80,86.70,-20.25,27.6
2026/04/15 14:30:04.96,IMU,42.48,-30.27,-1099.12,-15.15,-24.60,-39.52,148.80,85.50,-19.95,27.4
2026/04/15 14:30:05.06,IMU,49.80,-63.48,-1076.66,-14.00,-27.44,-39.31,148.65,85.80,-19.35,27.6
2026/04/15 14:30:05.16,IMU,43.46,-55.66,-1084.96,-16.29,-28.00,-38.15,151.20,85.80,-20.85,27.5
2026/04/15 14:30:05.26,IMU,34.18,-37.11,-1093.26,-11.53,-29.19,-41.15,151.20,85.35,-17.55,27.6
2026/04/15 14:30:05.36,IMU,21.48,-35.64,-1057.62,-4.76,-22.22,-39.63,151.95,84.15,-19.80,27.3
2026/04/15 14:30:05.46,IMU,24.90,-52.25,-1038.57,-3.13,-22.63,-41.73,153.60,83.25,-18.90,27.5
2026/04/15 14:30:05.56,IMU,13.18,-41.99,-1027.83,-0.93,-19.74,-41.34,154.80,81.15,-19.35,27.3
2026/04/15 14:30:05.66,IMU,25.39,-20.02,-1000.98,3.68,-15.06,-44.89,154.65,80.55,-17.85,27.5
2026/04/15 14:30:05.76,IMU,3.91,-47.85,-983.89,6.15,-4.93,-44.93,153.30,79.65,-18.30,27.5
2026/04/15 14:30:05.87,IMU,18.55,-49.32,-961.91,1.50,-3.13,-47.56,152.10,77.25,-18.90,27.5
2026/04/15 14:30:05.97,IMU,13.67,-54.69,-985.84,0.82,3.39,-44.39,151.65,74.10,-18.15,27.6
2026/04/15 14:30:06.07,IMU,14.65,-40.53,-1004.39,3.69,9.83,-46.66,148.20,73.65,-19.05,27.6
2026/04/15 14:30:06.17,IMU,17.09,-57.13,-1000.49,2.61,17.27,-46.57,146.55,71.85,-19.95,27.5
2026/04/15 14:30:06.27,IMU,31.74,-58.59,-1017.58,-4.44,22.01,-50.39,141.45,71.10,-19.65,27.6
2026/04/15 14:30:06.37,IMU,29.79,-34.67,-1046.39,-5.53,22.22,-47.88,139.05,70.50,-20.10,27.5
2026/04/15 14:30:06.47,IMU,29.79,-60.55,-1057.13,-7.11,22.27,-50.41,134.85,71.55,-22.50,27.5
2026/04/15 14:30:06.57,IMU,37.60,-69.34,-1069.34,-12.89,25.89,-50.77,134.25,71.70,-21.60,27.5
2026/04/15 14:30:06.67,IMU,45.41,-57.62,-1077.15,-17.37,24.29,-51.25,127.95,73.65,-21.90,27.6
2026/04/15 14:30:06.77,IMU,34.18,-26.37,-1074.71,-17.29,21.05,-50.31,125.55,74.85,-20.70,27.7
2026/04/15 14:30:06.87,IMU,41.99,-58.11,-1070.31,-16.27,15.31,-51.11,121.20,74.85,-18.90,27.6
2026/04/15 14:30:06.97,IMU,44.92,-44.43,-1046.88,-19.89,15.12,-49.42,123.00,78.00,-21.00,27.5
2026/04/15 14:30:07.07,IMU,41.50,-14.65,-1049.80,-18.08,10.06,-47.66,121.50,79.05,-22.80,27.3
2026/04/15 14:30:07.17,IMU,51.27,-31.74,-1022.95,-9.83,7.02,-45.85,118.20,81.30,-22.80,27.6
2026/04/15 14:30:07.27,IMU,38.57,-38.57,-991.70,-11.26,1.12,-45.56,117.15,82.20,-22.50,27.2
2026/04/15 14:30:07.37,IMU,36.13,-23.44,-1005.86,-7.35,-3.57,-49.60,116.25,83.85,-22.35,27.5
2026/04/15 14:30:07.47,IMU,41.99,-17.09,-992.19,-1.25,-4.64,-48.98,116.25,86.55,-23.10,27.6
2026/04/15 14:30:07.57,IMU,24.41,-28.32,-969.73,7.60,-3.85,-50.02,114.75,87.60,-24.45,27.5
2026/04/15 14:30:07.67,IMU,30.76,-18.07,-983.40,8.88,-5.22,-51.17,116.40,88.20,-22.50,27.6
2026/04/15 14:30:07.77,IMU,21.00,-7.81,-1003.91,16.26,-3.92,-53.09,116.70,89.40,-22.50,27.5
2026/04/15 14:30:07.87,IMU,24.41,-31.74,-1031.25,24.38,-2.20,-49.31,113.10,88.65,-17.10,27.5
2026/04/15 14:30:07.97,IMU,31.25,-13.67,-1080.08,23.35,3.08,-49.74,116.25,91.80,-19.80,27.1
2026/04/15 14:30:08.07,IMU,42.48,-33.20,-1070.80,27.51,2.13,-50.19,115.50,91.80,-20.85,27.5
2026/04/15 14:30:08.17,IMU,27.34,-30.27,-1086.91,29.71,8.34,-48.92,116.55,92.55,-21.15,27.5
2026/04/15 14:30:08.27,IMU,25.88,-41.02,-1091.31,31.73,12.04,-46.02,116.25,92.25,-20.10,27.5
2026/04/15 14:30:08.37,IMU,33.69,-57.62,-1063.96,26.12,15.22,-51.16,114.15,92.40,-20.25,27.4
2026/04/15 14:30:08.47,IMU,38.09,-18.55,-1082.52,24.27,15.06,-47.15,114.30,92.25,-20.55,27.4
2026/04/15 14:30:08.58,IMU,33.69,-55.18,-1056.64,24.56,16.55,-48.95,113.70,93.30,-19.80,27.5
2026/04/15 14:30:08.68,IMU,25.39,-78.12,-1029.79,17.66,16.14,-50.69,111.45,94.05,-20.10,27.6
2026/04/15 14:30:08.78,IMU,46.39,-55.66,-1013.67,10.99,16.79,-48.27,109.65,96.00,-18.75,27.6
2026/04/15 14:30:08.88,IMU,53.71,-36.62,-1010.25,10.66,14.85,-49.04,109.20,96.00,-18.75,27.6
2026/04/15 14:30:08.98,IMU,46.88,-58.11,-969.24,7.18,8.78,-48.45,109.05,98.40,-18.45,27.5
2026/04/15 14:30:09.08,IMU,59.57,-54.20,-967.29,1.27,3.11,-43.95,108.90,98.70,-18.75,27.5
2026/04/15 14:30:09.18,IMU,46.39,-48.34,-973.14,-0.56,-3.39,-44.93,110.10,102.60,-17.85,27.6
2026/04/15 14:30:09.28,IMU,58.59,-50.78,-988.28,0.22,-7.50,-46.40,111.00,104.40,-18.30,27.6
2026/04/15 14:30:09.38,IMU,78.12,-50.78,-995.61,-1.47,-13.14,-42.71,114.60,105.30,-17.10,27.5
2026/04/15 14:30:09.48,IMU,52.73,-46.88,-1012.21,-2.84,-20.63,-43.51,116.55,109.35,-19.05,27.8
2026/04/15 14:30:09.58,IMU,41.02,-37.11,-1040.04,-0.40,-23.52,-42.87,118.65,111.00,-18.90,27.7
2026/04/15 14:30:09.68,IMU,36.62,-50.29,-1047.36,5.12,-23.87,-43.41,121.50,110.25,-19.20,27.0
2026/04/15 14:30:09.78,IMU,47.85,-54.69,-1073.24,3.70,-28.36,-42.40,123.00,110.55,-18.15,27.8
2026/04/15 14:30:09.88,IMU,52.25,-34.67,-1098.14,5.83,-32.85,-40.04,128.85,111.75,-18.15,27.5
2026/04/15 14:30:09.98,IMU,38.09,-21.48,-1088.38,10.44,-31.81,-43.44,132.60,114.00,-17.40,27.7
2026/04/15 14:30:10.08,IMU,35.16,-65.43,-1075.68,11.92,-26.92,-44.62,134.85,112.95,-18.15,27.6
2026/04/15 14:30:10.18,IMU,13.18,-46.39,-1071.78,9.15,-24.21,-42.36,136.65,112.50,-17.85,27.5
2026/04/15 14:30:10.28,IMU,38.09,-40.53,-1060.55,14.73,-23.60,-42.92,137.40,112.50,-18.15,27.4
2026/04/15 14:30:10.38,IMU,16.11,-42.97,-1030.27,17.88,-19.40,-43.43,139.95,111.30,-19.95,27.5
2026/04/15 14:30:10.48,IMU,6.35,-83.50,-1015.63,11.89,-14.41,-41.96,141.60,109.65,-20.10,27.5
2026/04/15 14:30:10.58,IMU,20.02,-50.78,-992.19,9.07,-8.69,-41.88,143.25,108.75,-20.25,27.5
2026/04/15 14:30:10.68,IMU,12.70,-44.43,-991.21,10.60,-2.73,-43.94,145.50,107.25,-21.00,27.6
2026/04/15 14:30:10.78,IMU,19.04,-58.59,-973.14,7.84,-2.39,-44.87,145.80,107.55,-22.80,27.5
2026/04/15 14:30:10.88,IMU,26.86,-60.06,-985.35,-3.10,3.53,-43.26,147.90,105.15,-20.85,27.5
2026/04/15 14:30:10.98,IMU,27.34,-40.04,-988.28,-7.71,7.89,-42.56,146.70,104.70,-21.60,27.3
2026/04/15 14:30:11.08,IMU,32.23,-47.85,-999.51,-8.34,9.74,-41.92,147.15,106.65,-19.80,27.6
2026/04/15 14:30:11.19,IMU,45.90,-74.71,-1027.83,-14.53,8.37,-43.31,147.45,106.20,-21.60,27.3
2026/04/15 14:30:11.29,IMU,37.60,-39.06,-1059.57,-20.98,7.23,-43.82,147.30,108.00,-19.65,27.5
2026/04/15 14:30:11.39,IMU,28.81,-50.78,-1071.78,-22.61,7.25,-46.47,148.95,105.45,-19.35,27.5
2026/04/15 14:30:11.49,IMU,26.86,-58.59,-1058.59,-23.71,5.98,-43.65,149.85,105.30,-17.85,27.3
2026/04/15 14:30:11.59,IMU,37.11,-55.18,-1083.50,-25.63,3.89,-45.22,150.75,105.15,-18.00,27.3
2026/04/15 14:30:11.69,IMU,51.76,-30.27,-1079.59,-27.17,-2.25,-41.15,151.65,106.05,-17.85,27.6
2026/04/15 14:30:11.79,IMU,30.76,-32.23,-1075.20,-23.16,-4.11,-43.82,151.35,106.50,-18.45,27.6
2026/04/15 14:30:11.89,IMU,40.53,-48.83,-1057.13,-22.50,-4.30,-42.21,152.10,106.50,-18.45,27.3
2026/04/15 14:30:11.99,IMU,34.18,-26.86,-1039.06,-20.48,-5.80,-42.85,153.30,106.65,-17.25,27.4
2026/04/15 14:30:12.09,IMU,41.02,-28.81,-1013.18,-14.66,-6.66,-43.21,154.80,106.20,-17.55,27.5
2026/04/15 14:30:12.19,IMU,23.93,-35.16,-1008.79,-8.21,-8.29,-41.18,157.95,106.80,-17.40,27.5
2026/04/15 14:30:12.29,IMU,12.70,-35.64,-990.72,-5.54,-4.63,-43.69,159.00,105.30,-17.85,27.5
2026/04/15 14:30:12.39,IMU,17.58,-18.07,-991.70,-0.40,-4.83,-44.56,159.00,104.55,-17.40,27.5
2026/04/15 14:30:12.49,IMU,25.39,-9.77,-987.30,8.60,-0.28,-41.45,158.85,101.25,-17.25,27.3
2026/04/15 14:30:12.59,IMU,20.02,-43.95,-993.16,11.37,1.58,-44.23,160.05,99.75,-17.25,27.3
2026/04/15 14:30:12.69,IMU,10.74,-39.06,-1007.81,12.81,3.36,-45.69,160.35,95.55,-17.25,27.3
2026/04/15 14:30:12.79,IMU,15.63,-24.41,-1033.69,17.92,10.28,-45.57,158.10,94.80,-18.30,27.5
2026/04/15 14:30:12.89,IMU,28.81,-30.27,-1046.88,20.11,13.12,-43.24,157.65,89.70,-18.90,27.3
2026/04/15 14:30:12.99,IMU,27.34,-47.36,-1056.64,18.18,18.34,-47.09,154.95,88.65,-20.25,27.3
2026/04/15 14:30:13.09,IMU,23.44,-39.06,-1070.80,15.15,19.60,-44.24,152.70,86.55,-19.35,27.3
2026/04/15 14:30:13.19,IMU,30.27,-37.60,-1073.73,17.52,24.89,-46.31,149.55,83.25,-20.25,27.5
2026/04/15 14:30:13.29,IMU,35.64,-41.99,-1067.87,15.52,26.29,-43.50,147.30,80.55,-20.25,27.5
2026/04/15 14:30:13.39,IMU,36.13,-51.76,-1062.99,9.60,24.97,-43.90,145.05,79.50,-19.20,27.5
2026/04/15 14:30:13.49,IMU,47.36,-44.43,-1056.15,10.82,22.11,-46.46,142.95,78.30,-21.00,27.6
2026/04/15 14:30:13.59,IMU,35.64,-41.50,-1040.04,6.31,21.91,-46.34,141.00,78.00,-21.75,27.5
2026/04/15 14:30:13.69,IMU,55.66,-56.64,-1017.58,2.40,20.34,-41.28,138.15,76.80,-22.05,27.3
2026/04/15 14:30:13.79,IMU,67.87,-46.88,-996.09,-0.65,12.13,-43.60,136.05,76.65,-23.10,27.6
2026/04/15 14:30:13.89,IMU,53.71,-36.13,-982.42,1.08,6.19,-40.08,134.40,75.60,-22.80,27.3
2026/04/15 14:30:14.00,IMU,41.99,-43.95,-967.29,1.11,3.88,-42.27,132.00,76.95,-23.40,27.5
2026/04/15 14:30:14.10,IMU,67.87,-54.69,-989.75,0.10,-0.71,-40.23,129.60,76.05,-24.00,27.5
2026/04/15 14:30:14.20,IMU,46.88,-41.50,-995.12,0.80,-9.95,-38.50,130.80,76.80,-24.00,27.5
2026/04/15 14:30:14.30,IMU,52.73,-45.41,-1000.49,6.29,-14.50,-37.38,129.60,75.30,-23.25,27.3
2026/04/15 14:30:14.40,IMU,40.53,-51.76,-1001.46,6.31,-20.19,-37.98,128.85,76.80,-22.80,27.5
2026/04/15 14:30:14.50,IMU,41.50,-42.97,-1024.90,9.18,-20.63,-36.55,129.60,76.05,-21.45,27.5
2026/04/15 14:30:14.60,IMU,38.57,-36.62,-1055.18,14.41,-22.19,-36.89,129.30,76.50,-20.70,27.0
2026/04/15 14:30:14.70,IMU,62.01,-41.02,-1069.82,16.61,-24.70,-36.47,127.50,75.30,-21.45,27.5
2026/04/15 14:30:14.80,IMU,23.44,-61.52,-1066.89,17.27,-23.94,-40.41,127.50,74.85,-20.70,27.5
2026/04/15 14:30:14.90,IMU,23.44,-43.95,-1096.19,20.79,-24.70,-33.73,128.55,76.05,-20.70,27.6
2026/04/15 14:30:15.00,IMU,30.27,-44.92,-1084.96,23.93,-18.07,-32.80,125.55,73.35,-19.95,27.3
2026/04/15 14:30:15.10,IMU,39.06,-60.06,-1058.11,22.37,-16.49,-35.29,127.65,71.70,-20.85,27.6
2026/04/15 14:30:15.20,IMU,29.79,-56.64,-1041.50,18.49,-16.01,-33.95,126.45,71.70,-21.15,27.1
2026/04/15 14:30:15.30,IMU,30.76,-52.73,-1029.79,18.80,-11.59,-34.56,125.55,70.05,-21.45,27.5
2026/04/15 14:30:15.40,IMU,18.07,-56.15,-1002.44,15.57,-5.80,-38.08,125.70,68.70,-20.10,27.3
2026/04/15 14:30:15.50,IMU,34.18,-73.73,-986.33,11.96,-3.79,-35.35,124.05,68.85,-20.70,27.5
2026/04/15 14:30:15.60,IMU,32.23,-59.57,-975.10,5.74,-2.69,-38.02,121.95,69.15,-20.70,27.4
2026/04/15 14:30:15.70,IMU,17.09,-55.66,-971.19,1.46,0.56,-35.29,120.30,70.20,-19.35,27.4
2026/04/15 14:30:15.80,IMU,35.64,-64.94,-964.36,-2.48,2.98,-36.32,118.05,70.50,-20.85,27.1
2026/04/15 14:30:15.90,IMU,42.97,-57.13,-982.42,-9.59,4.58,-35.95,117.45,70.35,-19.95,27.5
2026/04/15 14:30:16.00,IMU,44.92,-44.92,-1001.95,-14.83,2.73,-36.40,112.20,71.70,-17.25,27.3
2026/04/15 14:30:16.10,IMU,31.25,-71.78,-1035.16,-15.69,-0.65,-36.16,115.35,76.05,-21.00,27.3
2026/04/15 14:30:16.20,IMU,33.20,-62.50,-1030.76,-18.73,1.47,-32.46,114.60,77.25,-20.70,27.5
2026/04/15 14:30:16.30,IMU,27.83,-44.92,-1050.78,-24.26,-0.23,-34.18,113.25,79.35,-20.85,27.5
2026/04/15 14:30:16.40,IMU,69.34,-55.66,-1090.82,-25.72,-1.44,-35.20,113.70,82.35,-21.15,27.4
2026/04/15 14:30:16.50,IMU,41.02,-61.04,-1065.43,-24.53,-5.47,-35.11,113.10,85.95,-21.00,27.5
2026/04/15 14:30:16.60,IMU,37.60,-57.62,-1078.61,-24.11,-6.28,-31.38,114.00,87.30,-21.15,27.5
2026/04/15 14:30:16.71,IMU,45.41,-35.64,-1084.47,-25.28,-6.92,-32.44,113.40,90.45,-19.95,27.3
2026/04/15 14:30:16.81,IMU,34.67,-30.27,-1044.43,-17.46,-9.48,-33.24,115.50,93.75,-20.55,27.1
2026/04/15 14:30:16.91,IMU,34.18,-47.85,-1038.09,-17.05,-11.79,-32.90,115.65,93.90,-20.25,27.2
2026/04/15 14:30:17.01,IMU,19.04,-36.13,-1026.86,-12.95,-10.57,-30.82,115.50,95.55,-20.85,27.3
2026/04/15 14:30:17.11,IMU,12.21,-22.46,-1000.49,-7.03,-6.73,-36.18,117.30,97.20,-21.90,27.2
2026/04/15 14:30:17.21,IMU,23.44,-30.27,-1006.35,-1.26,-6.42,-36.18,117.30,97.50,-21.90,27.5
2026/04/15 14:30:17.31,IMU,35.64,-41.50,-997.56,1.82,-3.79,-35.16,117.75,99.45,-22.65,27.0
2026/04/15 14:30:17.41,IMU,23.44,-32.71,-1001.46,3.88,-1.21,-36.02,118.65,101.55,-22.05,27.5
2026/04/15 14:30:17.52,IMU,23.44,-34.18,-998.05,11.82,3.21,-35.31,119.10,101.70,-20.85,27.2
2026/04/15 14:30:17.62,IMU,10.25,-47.36,-1015.63,13.16,8.82,-33.31,120.00,101.10,-20.25,27.3
2026/04/15 14:30:17.72,IMU,32.71,-44.92,-1023.44,13.05,13.92,-36.63,119.55,102.00,-19.05,27.3
2026/04/15 14:30:17.82,IMU,27.34,-34.18,-1046.39,17.33,14.44,-39.24,119.55,102.45,-18.75,27.3
2026/04/15 14:30:17.92,IMU,16.60,-58.59,-1033.20,18.44,18.90,-35.19,119.55,103.65,-19.05,27.3
2026/04/15 14:30:18.02,IMU,32.23,-52.25,-1082.03,17.65,22.76,-36.13,119.85,103.65,-19.35,27.3
2026/04/15 14:30:18.12,IMU,45.90,-48.83,-1059.57,12.66,25.00,-35.79,119.70,104.85,-18.45,27.5
2026/04/15 14:30:18.22,IMU,35.64,-35.16,-1072.27,14.53,24.17,-34.05,118.20,104.10,-19.20,27.3
2026/04/15 14:30:18.32,IMU,48.83,-54.20,-1054.20,8.84,22.69,-34.75,115.95,104.55,-19.65,27.2
2026/04/15 14:30:18.42,IMU,41.02,-53.22,-1040.53,4.69,23.36,-35.02,118.80,103.95,-18.75,27.2
2026/04/15 14:30:18.52,IMU,54.69,-42.48,-1031.25,3.24,18.50,-32.62,116.25,105.90,-19.05,27.1
2026/04/15 14:30:18.62,IMU,59.57,-40.53,-1007.81,5.54,17.09,-30.40,115.95,107.25,-18.45,27.2
2026/04/15 14:30:18.72,IMU,48.83,-45.41,-986.33,0.62,10.33,-32.06,116.55,108.45,-18.75,27.1
2026/04/15 14:30:18.82,IMU,48.83,-37.60,-998.54,-1.44,8.78,-33.35,115.35,109.50,-18.90,27.2
2026/04/15 14:30:18.92,IMU,50.29,-42.48,-976.07,0.95,2.03,-31.16,116.70,109.80,-18.15,27.3
2026/04/15 14:30:19.02,IMU,60.55,-52.73,-975.59,0.48,-1.78,-28.45,118.80,111.15,-17.25,27.5
2026/04/15 14:30:19.12,IMU,53.22,-47.36,-991.70,-0.80,-8.34,-29.63,118.95,112.05,-17.40,27.3
2026/04/15 14:30:19.22,IMU,58.59,-36.62,-1005.86,1.70,-13.26,-25.81,120.60,114.15,-17.55,27.3
2026/04/15 14:30:19.32,IMU,47.36,-40.53,-1011.72,3.43,-17.07,-27.75,123.00,113.25,-18.15,27.4
2026/04/15 14:30:19.42,IMU,55.18,-43.46,-1045.41,3.76,-20.63,-27.51,124.50,114.75,-17.40,27.3
2026/04/15 14:30:19.52,IMU,53.71,-41.50,-1050.78,5.31,-23.62,-25.86,126.75,114.45,-18.45,27.3
2026/04/15 14:30:19.62,IMU,38.57,-39.55,-1072.27,8.02,-24.25,-24.01,129.60,114.45,-17.10,27.3
2026/04/15 14:30:19.72,IMU,37.11,-60.06,-1062.50,11.93,-25.05,-25.88,132.15,113.70,-17.40,27.3
2026/04/15 14:30:19.82,IMU,41.02,-48.34,-1062.50,12.34,-22.44,-27.02,134.10,112.50,-17.85,27.5
2026/04/15 14:30:19.92,IMU,41.50,-47.36,-1073.24,11.17,-21.34,-25.00,136.50,113.10,-19.35,27.3
2026/04/15 14:30:20.02,IMU,21.97,-61.04,-1043.46,12.89,-22.11,-25.29,137.85,111.60,-18.75,27.3
2026/04/15 14:30:20.12,IMU,27.34,-49.80,-1033.69,14.37,-16.37,-22.98,139.50,111.75,-18.15,27.3
2026/04/15 14:30:20.23,IMU,29.30,-41.50,-1036.62,12.31,-13.69,-23.91,140.70,111.30,-18.90,27.0
2026/04/15 14:30:20.33,IMU,40.04,-46.88,-1002.44,10.21,-9.85,-27.42,142.65,109.65,-20.10,27.3
2026/04/15 14:30:20.43,IMU,21.97,-47.85,-988.28,9.82,-6.53,-24.91,142.95,108.75,-19.65,27.5
2026/04/15 14:30:20.53,IMU,25.39,-69.82,-987.79,6.98,-0.29,-25.31,144.30,108.75,-22.05,27.3
2026/04/15 14:30:20.63,IMU,11.23,-52.25,-988.77,-0.36,1.67,-22.96,144.30,109.05,-20.25,27.2
2026/04/15 14:30:20.73,IMU,17.58,-57.13,-983.89,-1.04,5.29,-29.40,144.15,107.40,-20.85,27.3
2026/04/15 14:30:20.83,IMU,24.90,-72.27,-991.70,-5.32,7.64,-24.93,144.75,108.00,-21.00,27.2
2026/04/15 14:30:20.93,IMU,30.27,-72.75,-1005.86,-11.33,7.32,-23.75,145.05,106.50,-20.70,27.2
2026/04/15 14:30:21.03,IMU,13.67,-56.64,-1020.02,-13.33,13.53,-25.54,146.25,109.80,-19.20,27.0
2026/04/15 14:30:21.13,IMU,41.50,-73.73,-1023.93,-15.47,14.10,-26.50,144.75,107.25,-19.65,27.3
2026/04/15 14:30:21.23,IMU,24.90,-41.99,-1056.64,-19.40,11.88,-25.54,145.95,110.10,-19.35,27.5
2026/04/15 14:30:21.33,IMU,40.53,-55.18,-1053.22,-21.81,11.40,-24.47,145.80,109.50,-17.85,27.4
2026/04/15 14:30:21.43,IMU,-499.51,-725.10,218.26,-56.26,170.26,-39.99,144.30,106.50,-17.85,26.8
2026/04/15 14:30:21.53,IMU,-695.31,-741.70,-646.00,-19.16,-18.57,25.66,81.60,47.70,-29.55,27.1
2026/04/15 14:30:21.63,IMU,-497.07,-613.28,-1210.45,71.82,66.30,-77.90,79.20,46.80,-23.55,27.1
2026/04/15 14:30:21.73,IMU,181.64,-168.95,-930.66,44.02,-39.76,-34.96,86.25,43.05,-38.70,27.3
2026/04/15 14:30:21.83,IMU,-56.64,-49.32,-942.38,2.65,-9.75,-30.65,89.40,42.00,-37.80,27.3
2026/04/15 14:30:21.93,IMU,62.50,-34.18,-993.65,-6.53,7.90,-29.66,90.15,40.95,-37.50,27.3
2026/04/15 14:30:22.03,IMU,105.96,-12.21,-1008.30,3.51,-4.38,-12.76,89.70,41.70,-37.80,27.1
2026/04/15 14:30:22.13,IMU,-19.53,-78.12,-1037.11,-1.70,-4.90,-9.10,91.35,40.05,-36.15,27.3
2026/04/15 14:30:22.23,IMU,-12.21,-62.99,-920.41,-2.50,-3.48,-9.48,91.20,40.50,-37.50,27.5
2026/04/15 14:30:22.33,IMU,4.88,-44.43,-949.71,-6.05,-0.96,-4.24,90.60,40.35,-36.15,27.3
2026/04/15 14:30:22.43,IMU,-12.21,-43.46,-1059.08,6.16,-9.12,0.94,92.10,40.80,-35.85,27.1
2026/04/15 14:30:22.53,IMU,-77.15,-94.73,-1000.98,4.66,6.52,-9.85,92.40,40.05,-37.65,27.3
2026/04/15 14:30:22.63,IMU,-18.55,-62.01,-948.73,-2.95,12.97,-28.68,92.85,40.05,-36.60,27.1
2026/04/15 14:30:22.73,IMU,165.04,-75.68,-920.41,-3.64,9.17,-28.89,90.60,39.15,-37.35,27.3
2026/04/15 14:30:22.83,IMU,21.97,-50.78,-1034.18,5.19,-1.46,4.82,93.75,39.00,-37.50,27.1
2026/04/15 14:30:22.93,IMU,14.16,-84.96,-998.54,1.21,-5.54,5.81,92.85,39.15,-36.60,27.3
2026/04/15 14:30:23.03,IMU,-16.11,-93.26,-987.79,-1.73,-1.50,-4.46,93.15,39.60,-37.35,27.0
