Timestamp,Sensor,AccX,AccY,AccZ,GyrX,GyrY,GyrZ,MagX,MagY,MagZ,Temp
2026/04/13 15:03:58.00,IMU,34.18,-8.30,-1021.48,0.28,0.38,1.12,-36.75,-5.55,-1.05,28.0
2026/04/13 15:03:58.10,IMU,42.97,-20.51,-1010.25,0.31,-1.29,1.85,-36.30,-6.75,-0.60,27.9
2026/04/13 15:03:58.20,IMU,52.73,-22.95,-1019.04,0.68,0.98,2.43,-37.50,-7.20,0.30,27.8
2026/04/13 15:03:58.30,IMU,48.83,-24.90,-1020.51,-0.51,-0.63,-0.96,-37.20,-5.10,-0.90,28.0
2026/04/13 15:03:58.40,IMU,51.76,-21.48,-1011.72,0.71,2.14,0.69,-37.80,-6.45,0.00,28.0
2026/04/13 15:03:58.50,IMU,41.50,-14.16,-1010.74,-2.18,-0.09,2.70,-36.30,-6.00,-1.80,28.0
2026/04/13 15:03:58.60,IMU,47.85,-14.16,-1016.60,0.18,0.73,-0.37,-36.00,-6.45,-1.05,28.0
2026/04/13 15:03:58.70,IMU,47.85,-8.79,-1019.04,2.00,-0.44,-0.47,-37.05,-5.25,-0.60,28.1
2026/04/13 15:03:58.80,IMU,55.18,-9.28,-1005.86,-0.88,0.73,0.55,-36.60,-6.90,-0.45,28.0
2026/04/13 15:03:58.90,IMU,66.41,-8.30,-1019.04,-0.85,0.20,-0.29,-37.65,-5.85,0.45,28.0
2026/04/13 15:03:59.00,IMU,49.80,-13.67,-1011.23,0.85,1.91,0.17,-37.95,-7.35,-0.90,28.3
2026/04/13 15:03:59.11,IMU,51.27,-31.25,-1018.55,-0.71,2.95,0.80,-36.60,-6.60,-0.90,28.0
2026/04/13 15:03:59.21,IMU,41.99,-15.14,-1016.60,1.15,3.48,-0.98,-35.40,-6.60,0.15,28.0
2026/04/13 15:03:59.31,IMU,42.97,-36.62,-983.40,-0.98,2.50,0.20,-36.60,-6.60,-0.45,28.0
2026/04/13 15:03:59.41,IMU,48.34,-34.18,-1016.11,1.53,0.45,2.79,-36.30,-6.45,-0.30,27.8
2026/04/13 15:03:59.51,IMU,66.41,-25.39,-1020.02,1.54,-0.11,-0.25,-37.20,-6.90,0.45,28.0
2026/04/13 15:03:59.61,IMU,42.48,-16.60,-1015.63,0.52,0.50,0.60,-36.60,-6.90,0.90,28.0
2026/04/13 15:03:59.71,IMU,37.60,-27.34,-1059.08,1.76,0.00,-1.19,-36.30,-5.25,0.30,27.8
2026/04/13 15:03:59.81,IMU,50.29,-17.58,-1009.28,-0.17,0.65,1.46,-37.05,-7.20,0.60,28.0
2026/04/13 15:03:59.91,IMU,62.01,-14.65,-1021.00,1.47,2.89,-0.94,-36.75,-5.55,-0.30,28.1
2026/04/13 15:04:00.01,IMU,42.97,-21.48,-1005.37,-2.82,-0.92,-0.46,-36.00,-6.45,-0.30,28.3
2026/04/13 15:04:00.11,IMU,45.41,-11.72,-1004.88,0.16,-1.08,-1.18,-36.60,-7.35,0.90,27.7
2026/04/13 15:04:00.21,IMU,45.41,-24.41,-1011.72,0.24,1.40,-1.73,-37.80,-6.75,-0.30,28.4
2026/04/13 15:04:00.31,IMU,58.59,-27.83,-1018.55,-0.53,2.20,1.51,-37.50,-6.75,-0.60,28.0
2026/04/13 15:04:00.41,IMU,52.25,-23.44,-1008.30,0.28,2.65,-0.24,-36.90,-5.85,0.45,28.2
2026/04/13 15:04:00.51,IMU,37.60,1.95,-1019.04,0.11,0.40,2.09,-36.60,-7.65,-0.45,28.0
2026/04/13 15:04:00.61,IMU,42.97,-26.37,-1013.67,0.08,0.55,-3.35,-37.05,-6.00,-0.30,28.1
2026/04/13 15:04:00.71,IMU,51.27,-13.67,-1012.70,0.00,1.79,-4.24,-36.90,-7.35,-0.90,28.1
2026/04/13 15:04:00.81,IMU,53.71,-13.67,-1025.39,-0.17,-0.72,-1.45,-37.95,-5.85,1.20,28.4
2026/04/13 15:04:00.91,IMU,43.95,-18.07,-1001.95,-0.47,1.88,2.50,-36.75,-7.20,-0.60,28.0
2026/04/13 15:04:01.01,IMU,32.23,-22.46,-1012.21,1.92,1.01,0.53,-36.00,-6.75,-1.05,28.3
2026/04/13 15:04:01.11,IMU,34.18,-11.23,-997.07,-0.69,-0.59,0.63,-36.30,-6.00,-0.30,28.2
2026/04/13 15:04:01.21,IMU,53.22,-11.72,-1024.90,0.31,-2.02,-2.55,-37.20,-7.35,0.15,28.2
2026/04/13 15:04:01.31,IMU,48.83,-17.09,-1004.88,1.08,-1.10,-0.33,-37.05,-5.25,0.30,28.4
2026/04/13 15:04:01.41,IMU,46.88,-21.97,-1016.60,0.81,1.47,-0.14,-35.40,-6.60,-0.15,28.3
2026/04/13 15:04:01.51,IMU,37.11,-15.63,-1016.60,0.95,-0.32,-2.26,-37.05,-6.45,-1.35,28.0
2026/04/13 15:04:01.61,IMU,42.48,-19.53,-1024.90,-1.54,0.69,0.53,-36.75,-6.75,-1.80,28.0
2026/04/13 15:04:01.71,IMU,51.27,-18.55,-1005.37,-1.42,0.17,-3.10,-36.30,-6.00,-1.35,28.0
2026/04/13 15:04:01.82,IMU,43.46,-19.04,-1016.60,0.44,1.60,-0.33,-37.50,-7.95,-0.30,28.0
2026/04/13 15:04:01.92,IMU,49.32,-10.25,-1013.67,-0.11,1.44,-0.66,-36.90,-5.40,-0.90,28.0
2026/04/13 15:04:02.02,IMU,41.99,-6.84,-1015.14,-2.47,-0.05,2.52,-35.85,-6.60,0.90,27.9
2026/04/13 15:04:02.12,IMU,48.34,-24.90,-1024.41,0.92,1.66,1.99,-34.50,-7.95,0.30,28.2
2026/04/13 15:04:02.22,IMU,44.43,-12.21,-1013.67,0.17,0.48,0.50,-37.50,-8.70,0.00,28.2
2026/04/13 15:04:02.32,IMU,41.02,-18.07,-1009.28,-1.40,1.16,0.00,-36.90,-6.60,1.20,28.2
2026/04/13 15:04:02.42,IMU,40.04,-15.14,-1001.46,1.06,-2.09,0.40,-35.85,-5.85,-1.20,27.9
2026/04/13 15:04:02.52,IMU,45.41,-20.51,-994.14,1.18,-1.18,-1.52,-36.60,-6.60,-0.15,28.1
2026/04/13 15:04:02.62,IMU,50.29,-18.07,-1007.81,1.64,-1.70,2.34,-38.25,-6.45,-0.30,28.1
2026/04/13 15:04:02.72,IMU,41.02,-11.23,-1005.37,0.21,-0.75,-1.89,-35.25,-5.55,-1.35,28.3
2026/04/13 15:04:02.82,IMU,33.69,-24.41,-1003.91,-0.42,1.16,-0.69,-35.10,-6.60,-0.45,28.0
2026/04/13 15:04:02.92,IMU,49.80,-9.28,-1009.28,-0.63,1.79,1.05,-37.20,-6.60,0.45,28.3
2026/04/13 15:04:03.02,IMU,34.18,-10.25,-1013.18,-1.18,0.79,1.05,-37.20,-7.35,0.45,28.0
2026/04/13 15:04:03.12,IMU,51.76,-5.86,-1015.63,-1.66,0.47,0.62,-36.90,-6.90,0.15,28.2
2026/04/13 15:04:03.22,IMU,45.90,-1.95,-1011.23,-0.66,-2.02,-0.66,-37.80,-6.75,0.30,28.2
2026/04/13 15:04:03.32,IMU,54.69,-10.25,-1018.07,-0.89,1.68,2.45,-36.30,-7.20,0.00,28.0
2026/04/13 15:04:03.42,IMU,46.39,-16.11,-1031.25,-1.40,0.49,-1.23,-36.15,-6.90,0.15,28.1
2026/04/13 15:04:03.52,IMU,36.13,-14.16,-1022.46,0.60,2.00,-0.78,-36.90,-6.15,-1.50,28.1
2026/04/13 15:04:03.62,IMU,58.11,-19.53,-1006.84,-1.08,0.47,0.15,-36.15,-5.10,-0.90,28.3
2026/04/13 15:04:03.72,IMU,63.96,-19.53,-1013.67,-0.69,-1.25,1.71,-36.90,-6.15,0.15,27.8
2026/04/13 15:04:03.82,IMU,48.34,-9.28,-1013.18,-0.25,-0.71,-0.42,-37.65,-5.40,0.15,28.2
2026/04/13 15:04:03.92,IMU,51.27,-16.60,-1008.79,-1.01,1.81,-0.55,-35.25,-6.00,-0.30,28.0
2026/04/13 15:04:04.02,IMU,42.97,-5.37,-1015.14,0.33,-1.05,0.50,-36.90,-5.85,-0.90,28.4
2026/04/13 15:04:04.12,IMU,54.69,-31.25,-1021.97,-0.18,0.49,3.41,-37.95,-6.15,0.45,28.1
2026/04/13 15:04:04.22,IMU,38.57,-12.70,-997.56,0.03,0.58,-0.95,-37.50,-7.20,0.30,28.3
2026/04/13 15:04:04.32,IMU,50.78,-24.41,-1006.84,-0.62,1.36,-0.44,-37.80,-6.45,0.30,28.4
2026/04/13 15:04:04.42,IMU,53.71,-14.65,-1003.42,0.56,0.04,-0.24,-36.00,-6.75,-0.60,28.2
2026/04/13 15:04:04.53,IMU,35.64,-16.11,-1019.04,-0.11,-0.91,0.47,-36.90,-8.40,-0.15,28.0
2026/04/13 15:04:04.63,IMU,54.20,-16.11,-1006.35,-0.09,-0.36,-0.80,-37.50,-6.75,-0.60,28.0
2026/04/13 15:04:04.73,IMU,56.15,-13.18,-1009.77,-0.40,0.18,-3.13,-37.05,-6.75,0.30,28.0
2026/04/13 15:04:04.83,IMU,50.29,-21.97,-1011.23,-0.83,-0.82,-0.33,-36.60,-6.60,0.90,28.0
2026/04/13 15:04:04.93,IMU,41.02,-15.63,-1002.93,0.63,-0.80,0.73,-36.60,-6.60,0.15,28.0
2026/04/13 15:04:05.03,IMU,53.22,-17.58,-1019.04,0.47,-0.83,-1.53,-36.60,-6.90,1.20,28.3
2026/04/13 15:04:05.13,IMU,41.99,-24.41,-1019.53,-0.96,0.34,2.40,-40.80,-7.50,2.40,28.4
2026/04/13 15:04:05.23,IMU,47.85,-19.53,-1010.25,-1.20,-1.31,0.42,-36.90,-6.60,-0.15,28.1
2026/04/13 15:04:05.33,IMU,51.76,-25.39,-1016.11,-0.44,-0.71,-0.58,-36.60,-6.90,-1.50,28.3
2026/04/13 15:04:05.43,IMU,53.71,-18.55,-1014.16,1.13,2.13,-0.02,-36.60,-4.65,-0.45,27.9
2026/04/13 15:04:05.53,IMU,41.50,-36.13,-1007.32,0.05,2.02,-0.93,-36.60,-6.15,-0.15,28.2
2026/04/13 15:04:05.63,IMU,50.29,-22.46,-1011.23,-0.26,-1.00,1.05,-36.75,-6.75,-0.30,28.4
2026/04/13 15:04:05.73,IMU,47.36,-34.18,-1013.18,0.42,1.80,-0.03,-35.85,-6.60,-1.95,28.4
2026/04/13 15:04:05.83,IMU,38.57,-17.58,-1020.51,0.16,1.82,1.47,-36.90,-6.15,-0.45,28.2
2026/04/13 15:04:05.93,IMU,64.94,-15.14,-1010.25,-0.37,1.81,3.42,-37.20,-5.85,0.15,28.4
2026/04/13 15:04:06.03,IMU,42.97,-22.46,-1018.55,-0.48,-1.22,-1.25,-35.85,-5.40,-0.15,28.4
2026/04/13 15:04:06.14,IMU,59.57,-25.39,-1015.14,-1.19,-0.44,-2.46,-35.55,-8.70,1.80,28.2
2026/04/13 15:04:06.24,IMU,44.92,-8.79,-1011.23,0.56,1.03,0.51,-36.15,-6.15,-1.20,28.2
2026/04/13 15:04:06.34,IMU,46.88,-6.35,-1021.97,1.15,0.31,-0.78,-36.90,-6.60,-0.45,28.2
2026/04/13 15:04:06.44,IMU,48.34,-21.00,-1007.81,-0.12,0.70,4.00,-36.15,-7.35,-0.45,28.2
2026/04/13 15:04:06.54,IMU,49.32,-12.70,-1016.11,-1.40,1.82,-2.05,-36.90,-6.90,-0.15,27.8
2026/04/13 15:04:06.64,IMU,39.06,-19.53,-1021.48,0.60,0.19,-2.14,-36.15,-4.35,-0.90,28.2
2026/04/13 15:04:06.74,IMU,55.18,-20.02,-1021.97,0.25,-0.82,-2.73,-37.50,-6.75,1.05,28.4
2026/04/13 15:04:06.84,IMU,37.60,-25.88,-1001.95,-1.05,2.37,0.02,-37.95,-8.40,0.90,28.4
2026/04/13 15:04:06.94,IMU,39.55,-29.79,-1020.02,1.95,-0.85,-2.79,-36.90,-6.15,-0.45,28.2
2026/04/13 15:04:07.04,IMU,46.39,-8.79,-1013.67,0.98,1.77,2.66,-36.75,-6.75,0.30,28.3
2026/04/13 15:04:07.14,IMU,42.48,-15.14,-1013.18,-0.46,2.98,1.50,-37.05,-6.75,0.60,28.2
2026/04/13 15:04:07.24,IMU,48.34,-19.53,-1019.04,-0.73,0.40,-2.52,-36.00,-7.20,-0.30,28.2
2026/04/13 15:04:07.34,IMU,44.43,-18.07,-1017.09,-0.27,0.94,1.56,-36.60,-5.10,-0.45,28.0
2026/04/13 15:04:07.44,IMU,42.97,-19.04,-1004.39,1.06,2.26,-1.84,-35.10,-6.60,-0.45,28.4
2026/04/13 15:04:07.54,IMU,37.60,-12.70,-1007.81,0.25,2.16,0.62,-36.00,-6.45,0.00,28.1
2026/04/13 15:04:07.64,IMU,52.25,-17.58,-1011.72,-0.19,-1.08,-0.62,-36.15,-5.85,-0.90,28.4
2026/04/13 15:04:07.74,IMU,41.99,-2.44,-1007.32,0.16,0.49,0.34,-36.75,-6.00,-0.30,28.2
2026/04/13 15:04:07.84,IMU,49.32,-24.41,-1007.32,1.73,-1.74,0.53,-37.05,-5.25,0.30,28.4
2026/04/13 15:04:07.94,IMU,50.78,-7.81,-1005.37,1.36,0.44,1.58,-36.15,-6.90,-0.90,28.2
2026/04/13 15:04:08.04,IMU,45.90,-15.63,-1019.04,0.38,0.09,-1.90,-36.90,-6.60,0.90,28.2
2026/04/13 15:04:08.14,IMU,46.88,-20.02,-1002.44,0.15,1.74,0.34,-36.75,-6.00,-0.60,28.1
2026/04/13 15:04:08.24,IMU,42.97,-21.00,-1013.67,0.36,0.13,0.72,-36.30,-6.75,-0.60,28.0
2026/04/13 15:04:08.34,IMU,49.32,-15.14,-1006.35,0.90,0.04,-3.42,-37.20,-6.90,-0.90,28.5
2026/04/13 15:04:08.44,IMU,35.64,-23.93,-1010.74,0.08,-1.11,-0.26,-35.85,-8.10,-0.15,28.4
2026/04/13 15:04:08.55,IMU,47.36,-26.86,-1024.90,-1.56,1.47,1.61,-36.30,-6.45,0.60,28.4
2026/04/13 15:04:08.65,IMU,50.29,-28.81,-1023.93,0.42,-1.76,1.34,-37.05,-6.45,-0.60,28.4
2026/04/13 15:04:08.75,IMU,42.97,-21.48,-1011.72,-0.35,2.52,0.85,-34.65,-7.35,0.15,28.2
2026/04/13 15:04:08.85,IMU,57.13,-11.72,-1012.21,-0.76,-0.11,2.47,-36.60,-6.15,0.15,27.8
2026/04/13 15:04:08.95,IMU,53.22,-12.70,-1027.34,3.05,1.05,-0.68,-36.30,-6.45,-1.80,28.3
2026/04/13 15:04:09.05,IMU,49.80,-10.25,-1019.04,-0.31,-1.17,-1.13,-35.55,-6.45,0.30,28.0
2026/04/13 15:04:09.15,IMU,37.11,-16.60,-1019.53,0.18,-0.17,3.53,-37.05,-6.75,-1.05,28.2
2026/04/13 15:04:09.25,IMU,56.15,-11.72,-1007.32,-1.13,0.22,-1.76,-35.85,-6.15,0.15,28.4
2026/04/13 15:04:09.35,IMU,39.55,-15.63,-1004.88,1.19,1.50,-0.83,-34.65,-6.60,-0.45,28.1
2026/04/13 15:04:09.45,IMU,50.78,-16.11,-1015.14,0.17,-1.78,-0.80,-35.85,-6.60,-0.45,28.2
2026/04/13 15:04:09.55,IMU,58.11,-21.00,-1013.67,0.98,0.50,-0.44,-37.05,-9.00,0.00,28.2
2026/04/13 15:04:09.65,IMU,52.25,-11.72,-1022.95,0.45,-1.56,-1.94,-35.55,-6.00,0.30,28.0
2026/04/13 15:04:09.75,IMU,52.73,-9.28,-1014.65,-0.31,0.85,0.28,-36.00,-7.50,-0.30,28.3
2026/04/13 15:04:09.85,IMU,49.80,-10.74,-1006.35,0.45,1.61,0.02,-36.15,-6.15,-0.45,28.0
2026/04/13 15:04:09.95,IMU,47.85,-22.46,-1013.18,-0.12,-0.85,-0.14,-37.50,-7.20,-0.60,28.2
2026/04/13 15:04:10.05,IMU,57.13,-16.60,-1013.18,-1.06,-0.38,2.90,-35.55,-7.50,-1.05,28.3
2026/04/13 15:04:10.15,IMU,43.95,-17.58,-1012.70,-0.49,0.25,0.95,-36.75,-5.25,-0.30,28.3
2026/04/13 15:04:10.25,IMU,39.55,-19.04,-1016.11,0.27,-0.43,-0.26,-35.40,-6.15,-0.90,28.2
2026/04/13 15:04:10.35,IMU,56.64,-16.60,-1013.18,-1.76,2.01,0.56,-36.90,-7.35,0.15,28.0
2026/04/13 15:04:10.45,IMU,40.53,-11.72,-1020.02,1.09,-0.09,0.02,-36.15,-5.85,0.90,28.5
2026/04/13 15:04:10.55,IMU,42.97,-28.81,-1023.44,0.82,0.23,0.69,-35.85,-5.85,0.90,28.2
2026/04/13 15:04:10.65,IMU,52.25,-15.63,-1007.81,-0.05,0.08,-1.56,-35.85,-6.15,0.15,28.1
2026/04/13 15:04:10.75,IMU,50.78,-18.55,-1017.58,1.89,1.82,-1.92,-37.05,-5.55,1.05,28.4
2026/04/13 15:04:10.85,IMU,47.85,-16.11,-1014.16,1.70,-0.58,0.82,-34.65,-6.15,-0.90,28.2
2026/04/13 15:04:10.95,IMU,41.02,-20.02,-1008.30,-1.76,-0.53,1.27,-36.60,-6.15,-0.90,28.0
2026/04/13 15:04:11.05,IMU,52.25,-5.86,-1009.77,-0.11,2.36,2.34,-36.00,-5.55,-0.60,28.3
2026/04/13 15:04:11.15,IMU,48.83,-13.67,-1014.65,-0.52,-0.10,0.37,-35.55,-4.80,0.00,28.1
2026/04/13 15:04:11.26,IMU,62.50,-18.07,-1009.77,0.70,2.75,0.07,-36.30,-7.50,-0.60,28.2
2026/04/13 15:04:11.36,IMU,62.01,-18.07,-1020.51,-0.45,-0.97,1.58,-36.15,-6.90,-1.20,28.4
2026/04/13 15:04:11.46,IMU,40.53,-23.44,-1004.88,0.77,-0.35,-2.30,-37.65,-6.60,-0.90,28.3
2026/04/13 15:04:11.56,IMU,50.78,-4.39,-1014.16,-0.47,-1.12,1.28,-36.75,-5.55,-0.60,28.2
2026/04/13 15:04:11.66,IMU,46.88,-19.53,-1013.67,0.56,-0.43,0.65,-37.05,-6.45,0.00,28.3
2026/04/13 15:04:11.76,IMU,39.06,-16.60,-1021.97,1.12,0.79,2.35,-37.05,-6.00,-1.35,28.3
2026/04/13 15:04:11.86,IMU,47.36,-13.67,-1023.44,1.02,3.63,3.15,-36.90,-5.40,-0.45,28.4
2026/04/13 15:04:11.96,IMU,49.80,-6.35,-1017.58,-0.48,-0.44,1.63,-37.20,-6.15,-0.90,27.9
2026/04/13 15:04:12.06,IMU,36.62,-14.16,-1012.70,0.27,0.18,0.30,-35.85,-7.35,-1.50,28.2
2026/04/13 15:04:12.16,IMU,53.71,-25.39,-1007.32,-1.58,0.14,0.01,-36.75,-6.45,0.00,28.0
2026/04/13 15:04:12.26,IMU,39.55,-16.11,-1013.18,-2.40,0.68,-2.79,-36.15,-5.40,-0.15,28.2
2026/04/13 15:04:12.36,IMU,48.34,-14.16,-1002.44,-1.38,-1.15,0.71,-36.00,-6.75,-0.60,28.2
2026/04/13 15:04:12.46,IMU,43.95,-21.97,-1016.60,-0.62,1.44,1.08,-35.25,-6.75,0.30,28.2
2026/04/13 15:04:12.56,IMU,52.73,-16.60,-1012.21,0.27,0.65,3.07,-37.20,-6.60,-0.45,28.3
2026/04/13 15:04:12.66,IMU,46.39,-17.58,-1006.84,0.54,1.53,0.17,-37.80,-6.00,-0.60,28.4
2026/04/13 15:04:12.76,IMU,74.22,-21.97,-1011.23,-0.10,1.38,0.07,-36.75,-6.00,0.30,28.4
2026/04/13 15:04:12.86,IMU,43.95,-19.04,-1024.41,0.66,1.25,0.45,-36.60,-6.60,-0.45,28.0
2026/04/13 15:04:12.96,IMU,46.88,-21.97,-1001.95,-0.87,-1.58,1.56,-37.50,-6.75,-1.05,28.4
2026/04/13 15:04:13.06,IMU,47.85,-21.48,-1011.23,-1.21,0.95,1.08,-36.60,-6.60,-0.15,28.6
2026/04/13 15:04:13.16,IMU,47.85,-16.11,-1013.67,0.34,0.33,2.05,-36.75,-6.75,0.60,28.3
2026/04/13 15:04:13.26,IMU,57.62,-21.97,-1016.11,0.38,0.04,-1.20,-36.00,-6.00,0.30,28.4
2026/04/13 15:04:13.36,IMU,57.13,-16.11,-1012.21,0.92,-0.32,-0.70,-37.20,-6.60,-0.90,28.4
2026/04/13 15:04:13.46,IMU,38.09,-24.41,-1017.09,-0.01,1.58,0.01,-35.25,-7.20,-0.30,28.5
2026/04/13 15:04:13.56,IMU,49.32,-9.77,-1005.86,-0.47,0.72,-0.09,-37.65,-7.35,-0.15,28.5
2026/04/13 15:04:13.66,IMU,52.73,-14.16,-1016.60,0.49,-1.60,-1.08,-37.20,-6.15,-0.15,28.3
2026/04/13 15:04:13.76,IMU,55.18,-17.09,-1018.55,0.29,1.60,-0.87,-36.60,-6.90,-0.90,28.2
2026/04/13 15:04:13.86,IMU,58.11,-22.95,-1017.09,-1.07,0.40,0.01,-37.05,-5.25,0.60,28.1
2026/04/13 15:04:13.97,IMU,44.92,-4.39,-1009.28,1.00,0.05,-0.71,-36.75,-5.25,-0.30,28.4
2026/04/13 15:04:14.07,IMU,43.95,-22.46,-1016.11,1.03,-0.01,1.90,-35.40,-6.60,0.15,28.1
2026/04/13 15:04:14.17,IMU,58.59,-20.51,-1015.14,0.02,1.07,-0.79,-35.55,-7.95,-0.30,28.2
2026/04/13 15:04:14.27,IMU,39.55,-10.25,-1009.28,0.37,-1.05,1.37,-38.70,-6.15,2.70,28.4
2026/04/13 15:04:14.37,IMU,53.22,-14.65,-1008.79,0.79,1.27,-0.83,-36.75,-7.20,0.00,28.4
2026/04/13 15:04:14.47,IMU,56.15,-11.72,-1013.67,0.27,1.85,-0.39,-36.00,-6.45,-0.30,28.5
2026/04/13 15:04:14.57,IMU,41.50,-19.53,-1025.39,-0.16,0.34,-1.50,-36.60,-6.15,0.45,28.2
2026/04/13 15:04:14.67,IMU,43.46,-13.67,-1014.65,2.02,-0.61,0.55,-34.50,-6.45,0.30,28.3
2026/04/13 15:04:14.77,IMU,43.46,-17.09,-1010.74,-0.80,-0.40,0.27,-36.75,-6.45,0.00,28.4
2026/04/13 15:04:14.87,IMU,53.22,-1.95,-1013.67,0.17,-0.90,1.55,-37.05,-6.75,0.00,28.2
2026/04/13 15:04:14.97,IMU,59.57,-9.28,-1010.25,2.20,-0.19,0.65,-37.05,-6.45,0.30,28.0
2026/04/13 15:04:15.80,IMU,47.85,-5.86,-1000.00,-0.18,0.40,2.64,-36.30,-6.45,0.30,28.4
2026/04/13 15:04:15.90,IMU,36.62,-20.51,-1010.74,0.94,-0.56,2.79,-36.75,-7.50,0.30,28.4
2026/04/13 15:04:16.00,IMU,47.85,-14.16,-1004.88,-0.25,0.34,2.06,-36.75,-6.75,1.05,28.0
2026/04/13 15:04:16.10,IMU,48.83,-18.07,-1020.51,0.85,1.81,-2.55,-37.65,-7.65,0.45,28.2
2026/04/13 15:04:16.20,IMU,53.71,-24.41,-1010.74,-0.81,-0.80,-3.50,-37.05,-5.55,-0.60,28.1
2026/04/13 15:04:16.30,IMU,37.60,-20.02,-1022.46,-0.44,-0.09,0.37,-36.90,-5.10,-0.90,28.4
2026/04/13 15:04:16.40,IMU,55.18,-18.55,-1012.70,-0.05,0.63,0.24,-35.55,-6.75,0.30,28.3
2026/04/13 15:04:16.50,IMU,41.99,-20.02,-1017.58,1.05,0.08,0.57,-37.20,-5.10,-1.20,28.4
2026/04/13 15:04:16.60,IMU,41.50,-15.14,-1010.74,0.44,0.32,3.09,-37.95,-5.40,-1.20,28.2
2026/04/13 15:04:16.70,IMU,46.88,-21.48,-1018.07,1.85,0.45,-2.56,-36.90,-6.60,-0.90,28.2
2026/04/13 15:04:16.80,IMU,41.02,-24.41,-1037.60,0.49,3.20,-4.18,-36.15,-6.60,-0.90,28.0
2026/04/13 15:04:16.90,IMU,47.36,-7.81,-1014.65,1.79,0.73,0.04,-37.50,-5.55,-0.60,28.3
2026/04/13 15:04:17.00,IMU,45.41,-12.21,-1014.16,0.18,-0.47,-0.36,-36.75,-5.55,-0.60,28.1
2026/04/13 15:04:17.10,IMU,53.22,-14.65,-1011.72,0.40,-0.08,2.38,-36.90,-5.40,-0.45,28.0
2026/04/13 15:04:17.20,IMU,42.48,-19.04,-1020.02,-1.00,0.89,-2.05,-38.25,-6.00,-1.05,28.2
2026/04/13 15:04:17.30,IMU,46.88,-21.00,-1015.14,-0.15,0.91,0.18,-36.90,-6.15,-0.15,28.4
2026/04/13 15:04:17.40,IMU,51.76,-4.39,-1012.21,0.48,-0.41,-0.34,-34.95,-6.45,-0.30,27.7
2026/04/13 15:04:17.51,IMU,43.95,-21.97,-1022.46,0.60,-2.09,0.16,-36.90,-6.15,-0.15,28.5
2026/04/13 15:04:17.61,IMU,45.41,-11.23,-1008.30,0.71,1.02,-1.08,-36.30,-4.80,-0.30,28.3
2026/04/13 15:04:17.71,IMU,49.80,-8.30,-1018.07,-1.56,-0.95,-0.57,-36.00,-6.00,0.00,28.4
2026/04/13 15:04:17.81,IMU,59.57,-0.98,-1011.72,-0.22,0.51,-0.66,-36.30,-6.45,-0.30,28.2
2026/04/13 15:04:17.91,IMU,54.20,-17.58,-1011.72,0.94,-0.64,-1.60,-37.20,-7.35,0.15,28.0
2026/04/13 15:04:18.01,IMU,51.27,-16.60,-1020.51,0.13,0.85,0.61,-36.75,-4.80,-0.30,28.0
2026/04/13 15:04:18.11,IMU,43.95,-15.14,-1021.48,0.15,2.05,1.18,-36.30,-6.00,0.30,28.4
2026/04/13 15:04:18.21,IMU,45.90,-16.11,-1005.86,0.39,0.08,3.27,-37.05,-7.20,0.30,28.4
2026/04/13 15:04:18.31,IMU,58.11,-14.16,-1011.23,1.27,0.66,-1.09,-35.55,-6.75,0.30,28.4
2026/04/13 15:04:18.41,IMU,54.20,-19.04,-1007.32,-0.37,-0.03,0.27,-37.95,-6.15,0.15,28.3
2026/04/13 15:04:18.51,IMU,44.92,-19.04,-1009.28,0.07,-1.45,0.86,-36.30,-6.00,0.00,28.0
2026/04/13 15:04:18.61,IMU,50.78,-21.48,-1013.67,2.30,0.08,-2.11,-36.15,-5.40,-1.20,28.2
2026/04/13 15:04:18.71,IMU,56.64,-0.98,-1021.00,-0.15,-1.44,0.99,-35.10,-7.35,-0.15,28.3
2026/04/13 15:04:18.81,IMU,39.55,-16.60,-1019.04,-1.05,0.25,-0.66,-37.05,-5.55,0.30,28.3
2026/04/13 15:04:18.91,IMU,47.36,-16.60,-1001.46,-0.17,0.82,0.54,-37.80,-6.45,0.00,28.4
2026/04/13 15:04:19.01,IMU,42.97,-20.51,-1031.74,0.13,0.42,1.98,-36.75,-6.00,0.60,28.5
2026/04/13 15:04:19.11,IMU,43.95,-13.18,-1014.65,-1.52,0.46,-0.41,-37.50,-6.75,-1.05,28.2
2026/04/13 15:04:19.21,IMU,51.27,-22.46,-1020.51,0.25,-1.92,-0.98,-37.05,-5.55,-0.60,28.3
2026/04/13 15:04:19.31,IMU,45.90,-14.65,-1003.42,0.25,1.40,-1.56,-35.55,-6.00,-1.05,28.0
2026/04/13 15:04:19.41,IMU,48.34,-11.23,-1019.53,-0.26,0.41,1.74,-36.75,-6.45,0.00,28.3
2026/04/13 15:04:19.51,IMU,45.90,-18.07,-1015.63,-1.69,1.13,3.68,-35.85,-5.85,-0.90,28.0
2026/04/13 15:04:19.61,IMU,48.34,-21.48,-1000.98,-0.15,1.69,-1.61,-35.85,-6.90,0.90,28.4
2026/04/13 15:04:19.71,IMU,51.27,-20.02,-1001.95,-0.06,0.52,2.23,-36.60,-6.60,-0.15,28.1
2026/04/13 15:04:19.81,IMU,45.41,-26.37,-1021.48,-1.80,0.37,1.53,-37.95,-5.85,0.15,28.2
2026/04/13 15:04:19.91,IMU,54.20,-24.41,-1009.77,0.50,1.10,1.36,-37.65,-7.35,-0.45,28.5
2026/04/13 15:04:20.01,IMU,44.92,-18.55,-1020.02,-1.06,-0.65,-1.60,-36.00,-6.75,-0.60,28.1
2026/04/13 15:04:20.11,IMU,50.78,-7.81,-1007.32,-1.07,1.72,-1.50,-36.15,-6.60,0.45,28.3
2026/04/13 15:04:20.21,IMU,46.39,-18.55,-1023.93,-0.85,0.73,1.97,-37.50,-6.75,0.30,28.2
2026/04/13 15:04:20.32,IMU,56.15,-11.23,-1021.97,0.93,-2.34,0.99,-36.00,-7.50,-0.60,28.2
2026/04/13 15:04:20.42,IMU,49.80,-13.67,-1025.39,0.96,1.52,0.64,-35.85,-5.10,0.15,28.2
2026/04/13 15:04:20.52,IMU,47.36,-15.63,-1009.77,-1.74,-0.95,0.63,-37.95,-5.10,-0.45,28.4
2026/04/13 15:04:20.62,IMU,62.99,-11.72,-1011.72,1.59,-0.63,-0.34,-35.55,-7.20,0.30,28.2
2026/04/13 15:04:20.72,IMU,44.92,-19.04,-1005.86,1.07,-2.77,-0.75,-36.15,-6.15,0.90,28.3
2026/04/13 15:04:20.82,IMU,50.29,-11.72,-1013.18,2.76,0.20,0.95,-36.30,-6.00,-0.30,28.6
2026/04/13 15:04:20.92,IMU,45.41,-18.07,-1010.74,-0.21,0.18,0.86,-36.30,-6.00,0.60,28.1
2026/04/13 15:04:21.02,IMU,45.90,-16.60,-1012.70,1.03,1.48,-0.96,-35.85,-6.15,0.15,28.3
2026/04/13 15:04:21.12,IMU,52.25,-17.58,-1000.49,-0.27,0.11,0.22,-36.75,-6.00,-0.60,28.2
2026/04/13 15:04:21.22,IMU,47.85,-19.53,-1007.32,-0.41,1.29,-0.40,-36.15,-6.15,0.45,28.4
2026/04/13 15:04:21.32,IMU,48.34,-17.58,-1021.97,0.19,0.47,0.12,-36.30,-6.75,0.00,28.4
2026/04/13 15:04:21.42,IMU,50.78,-13.18,-1009.77,-0.44,-0.39,-2.31,-37.20,-5.40,-0.90,28.3
2026/04/13 15:04:21.52,IMU,57.62,-16.60,-1005.86,-0.14,0.46,-2.55,-36.75,-7.20,-0.30,28.0
2026/04/13 15:04:21.62,IMU,29.30,-15.63,-1022.46,-1.52,-2.08,-0.07,-37.20,-6.60,0.15,28.4
2026/04/13 15:04:21.72,IMU,48.34,-21.00,-1013.18,-0.99,-0.66,-0.30,-37.80,-6.00,0.00,28.4
2026/04/13 15:04:21.82,IMU,53.71,-22.46,-1009.77,1.31,2.44,-0.51,-36.30,-5.25,0.60,28.3
2026/04/13 15:04:21.92,IMU,55.18,-8.30,-1001.95,0.27,-0.92,-2.57,-39.15,-8.10,2.25,27.8
2026/04/13 15:04:22.02,IMU,41.99,-21.97,-1012.70,1.42,0.00,-1.18,-36.75,-6.45,0.30,28.4
2026/04/13 15:04:22.12,IMU,40.53,-30.76,-1002.44,0.47,0.34,1.05,-37.20,-6.15,0.90,28.3
2026/04/13 15:04:22.22,IMU,60.55,-13.18,-1003.42,1.20,1.05,-0.23,-37.20,-6.60,-0.15,28.4
2026/04/13 15:04:22.32,IMU,50.78,-15.14,-1011.72,-0.24,1.52,1.82,-35.85,-6.60,-1.20,28.3
2026/04/13 15:04:22.42,IMU,52.73,-14.65,-1010.74,0.77,0.63,-3.92,-35.85,-5.85,-1.20,28.2
2026/04/13 15:04:22.52,IMU,38.57,-21.00,-1006.35,1.69,-0.18,1.32,-36.00,-5.55,0.30,28.2
2026/04/13 15:04:22.62,IMU,46.39,-16.60,-999.02,1.07,-0.07,0.04,-37.05,-5.25,-1.05,28.2
2026/04/13 15:04:22.72,IMU,47.36,-24.90,-1011.72,0.81,2.09,0.63,-36.75,-6.45,-1.05,28.1
2026/04/13 15:04:22.82,IMU,45.41,-31.74,-1008.30,-0.21,0.21,0.52,-36.75,-5.55,1.80,28.0
2026/04/13 15:04:22.93,IMU,42.48,-13.67,-1005.37,-0.44,0.40,-1.21,-39.60,-9.75,3.90,28.2
2026/04/13 15:04:23.03,IMU,46.88,-16.11,-1018.55,1.08,-1.04,-1.69,-35.85,-6.90,-0.90,28.2
2026/04/13 15:04:23.13,IMU,45.90,-8.79,-1012.21,1.95,0.15,4.37,-37.20,-6.60,0.15,28.4
2026/04/13 15:04:23.23,IMU,55.18,-32.71,-1030.27,1.18,-2.47,-0.94,-36.60,-6.90,-1.20,28.4
2026/04/13 15:04:23.33,IMU,49.32,-16.60,-1011.72,0.22,0.40,-0.21,-36.60,-6.90,-1.20,28.1
2026/04/13 15:04:23.43,IMU,46.39,-16.11,-1004.39,0.28,1.59,-1.26,-37.05,-6.00,-0.30,28.4
2026/04/13 15:04:23.53,IMU,35.16,-20.02,-999.02,-0.44,0.04,-0.19,-35.25,-6.45,-0.60,28.3
2026/04/13 15:04:23.63,IMU,57.62,-14.16,-1011.23,0.57,-2.22,-0.44,-35.85,-6.15,-1.20,28.2
2026/04/13 15:04:23.73,IMU,43.46,-20.51,-1021.00,-0.29,-0.19,2.37,-37.05,-6.45,0.30,28.0
2026/04/13 15:04:23.83,IMU,55.18,-20.51,-1009.77,2.06,0.56,-1.95,-36.30,-6.75,0.00,28.3
2026/04/13 15:04:23.93,IMU,49.80,-15.14,-1018.07,0.31,1.27,0.73,-36.00,-6.45,0.60,28.3
2026/04/13 15:04:24.03,IMU,49.32,-25.88,-1010.25,1.40,-0.49,0.52,-37.65,-6.90,-1.20,28.0
2026/04/13 15:04:24.13,IMU,43.95,-24.41,-1016.60,-0.41,1.35,-0.98,-37.50,-6.45,-0.30,28.4
2026/04/13 15:04:24.23,IMU,45.90,-18.07,-1025.39,-1.19,-3.15,-0.79,-36.75,-6.75,1.05,28.4
2026/04/13 15:04:24.33,IMU,53.71,-13.18,-1008.79,0.38,0.87,-0.62,-38.55,-5.25,-0.30,28.3
2026/04/13 15:04:24.43,IMU,45.41,-21.00,-1020.02,1.79,0.42,-3.69,-37.65,-6.15,-0.45,28.1
2026/04/13 15:04:24.53,IMU,41.99,-24.90,-1024.90,-1.21,-0.15,1.15,-37.20,-5.10,-0.90,28.0
2026/04/13 15:04:24.63,IMU,43.46,-20.51,-1015.14,0.44,1.56,-0.18,-37.65,-6.00,-1.35,28.4
2026/04/13 15:04:24.73,IMU,37.11,-24.41,-1013.67,1.81,0.80,1.20,-36.15,-5.85,-0.45,28.1
2026/04/13 15:04:24.83,IMU,45.41,-16.60,-1005.86,1.52,-2.85,1.92,-36.90,-6.15,0.45,28.4
2026/04/13 15:04:24.93,IMU,37.60,-24.41,-1014.65,-0.70,0.33,0.73,-36.90,-6.60,-0.45,28.3
2026/04/13 15:04:25.03,IMU,46.88,-14.16,-1013.67,-0.39,-0.33,1.75,-37.50,-4.65,0.90,28.0
2026/04/13 15:04:25.13,IMU,39.06,-23.44,-1013.18,-0.15,0.22,-3.21,-37.05,-6.00,0.00,28.4
2026/04/13 15:04:25.24,IMU,42.48,-31.74,-1010.25,-1.34,0.01,-2.52,-36.60,-4.35,-0.45,28.4
2026/04/13 15:04:25.34,IMU,51.76,-20.02,-1011.23,0.15,2.47,3.73,-36.90,-5.40,-1.20,28.2
2026/04/13 15:04:25.44,IMU,54.69,-20.51,-1010.25,0.18,0.99,-0.14,-36.15,-5.85,-1.20,28.2
2026/04/13 15:04:25.54,IMU,52.25,-32.23,-1012.21,0.47,0.20,1.11,-36.15,-6.60,0.15,28.3
2026/04/13 15:04:25.64,IMU,43.46,-21.48,-1015.63,-0.47,0.60,3.73,-37.05,-7.20,-0.60,28.3
2026/04/13 15:04:25.74,IMU,53.22,-17.58,-1019.04,0.61,-1.18,0.22,-36.75,-6.45,-1.05,28.0
2026/04/13 15:04:25.84,IMU,55.66,-21.48,-1016.60,0.23,-0.59,-2.37,-36.60,-5.85,0.45,27.9
2026/04/13 15:04:25.94,IMU,48.34,-15.63,-1023.44,1.67,1.36,0.17,-37.20,-6.15,-0.15,28.2
2026/04/13 15:04:26.04,IMU,45.41,-16.60,-1011.23,-0.80,0.62,-0.85,-37.05,-6.00,-0.30,28.4
2026/04/13 15:04:26.14,IMU,44.43,-19.53,-1011.72,2.66,1.71,1.44,-35.85,-5.10,-0.45,28.0
2026/04/13 15:04:26.24,IMU,51.76,-16.60,-1016.60,0.59,2.21,-1.40,-37.50,-6.75,-0.30,28.2
2026/04/13 15:04:26.34,IMU,50.29,-13.18,-1016.11,0.53,0.85,-0.11,-36.75,-7.20,0.00,28.2
2026/04/13 15:04:26.44,IMU,49.80,-11.72,-1023.93,-1.78,1.41,-0.92,-36.90,-7.35,-0.90,28.4
2026/04/13 15:04:26.54,IMU,41.99,-7.81,-1008.79,0.18,0.02,-0.96,-37.80,-6.45,0.30,28.4
2026/04/13 15:04:26.64,IMU,38.09,-21.00,-1007.81,0.13,1.82,1.15,-36.15,-7.35,0.15,28.4
2026/04/13 15:04:26.74,IMU,42.48,-23.44,-1000.49,-0.06,-0.97,-0.18,-37.50,-6.75,0.30,28.1
2026/04/13 15:04:26.84,IMU,53.71,-20.02,-1019.53,1.53,-0.40,-1.19,-36.15,-5.40,-1.20,28.4
2026/04/13 15:04:26.94,IMU,58.59,-13.18,-1019.04,-0.16,1.76,-2.21,-36.75,-7.20,-0.30,28.0
2026/04/13 15:04:27.04,IMU,43.95,-9.77,-1012.21,0.30,0.43,1.15,-36.15,-4.65,0.15,28.4
2026/04/13 15:04:27.14,IMU,47.36,-18.55,-1021.00,-0.04,0.69,-0.08,-36.00,-5.55,-0.60,28.0
2026/04/13 15:04:27.24,IMU,44.92,-27.34,-1019.04,0.37,-0.63,3.72,-35.85,-7.35,-0.15,28.4
2026/04/13 15:04:27.34,IMU,40.53,-25.88,-1012.70,1.73,-0.53,2.40,-36.00,-6.00,0.60,28.0
2026/04/13 15:04:27.44,IMU,48.34,-16.60,-1005.86,-1.08,1.18,0.27,-36.75,-6.75,-0.30,28.4
2026/04/13 15:04:27.54,IMU,57.62,-21.48,-1010.25,0.74,0.56,2.34,-35.55,-6.00,-0.60,28.1
2026/04/13 15:04:27.64,IMU,43.95,-18.07,-1009.28,1.41,-0.06,0.73,-36.75,-7.50,0.00,28.3
2026/04/13 15:04:27.74,IMU,47.36,-10.74,-1003.42,0.99,-0.25,-0.20,-36.60,-6.60,-0.15,28.4
2026/04/13 15:04:27.84,IMU,53.22,-18.07,-1019.53,-0.67,1.47,0.53,-36.15,-5.10,0.15,28.1
2026/04/13 15:04:27.95,IMU,46.88,-22.95,-1023.93,-0.20,0.55,1.27,-36.00,-6.45,-0.30,28.4
2026/04/13 15:04:28.05,IMU,43.95,-14.65,-1013.67,1.49,-0.24,2.31,-36.30,-6.45,0.60,28.2
2026/04/13 15:04:28.15,IMU,46.39,-19.53,-1014.16,-0.12,1.68,0.52,-35.10,-6.15,0.15,28.4
2026/04/13 15:04:28.25,IMU,44.92,-9.28,-1014.16,2.90,2.92,2.11,-36.75,-5.25,1.35,28.3
2026/04/13 15:04:28.35,IMU,58.59,-24.41,-1012.21,0.03,0.34,-1.71,-36.75,-5.55,0.00,28.3
2026/04/13 15:04:28.45,IMU,42.48,-14.16,-1008.79,-0.65,1.28,0.76,-35.40,-5.10,-0.90,28.1
2026/04/13 15:04:28.55,IMU,47.85,-12.70,-1011.72,1.08,-0.56,-0.54,-35.40,-5.85,0.15,28.3
2026/04/13 15:04:28.65,IMU,58.11,-14.65,-1017.09,-0.11,0.60,-1.98,-35.25,-7.50,1.35,28.3
2026/04/13 15:04:28.75,IMU,50.78,-20.02,-1021.97,0.83,2.45,1.11,-36.90,-8.10,0.45,28.1
2026/04/13 15:04:28.85,IMU,43.95,-20.02,-1012.21,0.89,-0.29,-0.33,-37.05,-8.70,-0.60,28.3
2026/04/13 15:04:28.95,IMU,50.78,-9.77,-1019.53,-0.06,-0.34,-1.25,-37.20,-7.35,-0.15,28.2
2026/04/13 15:04:29.05,IMU,36.13,-10.74,-1021.97,-1.24,-0.52,-1.08,-37.95,-6.60,0.90,28.2
2026/04/13 15:04:29.15,IMU,49.80,-26.86,-1011.72,0.43,-0.97,-0.67,-36.00,-6.45,0.00,28.2
2026/04/13 15:04:29.25,IMU,48.83,-18.07,-1013.18,0.12,0.13,2.61,-36.75,-5.25,0.00,28.4
2026/04/13 15:04:29.35,IMU,47.85,-15.14,-1009.77,-0.99,-1.18,-1.52,-36.90,-6.60,-0.45,28.2
2026/04/13 15:04:29.45,IMU,39.06,-15.63,-1003.91,-0.37,-0.08,-0.05,-36.90,-5.85,0.15,28.0
2026/04/13 15:04:29.55,IMU,40.53,-22.46,-1009.77,0.73,1.50,0.70,-36.90,-6.90,0.45,28.2
2026/04/13 15:04:29.65,IMU,46.88,-18.55,-1008.30,0.18,0.40,2.60,-36.60,-6.15,0.15,28.4
2026/04/13 15:04:29.75,IMU,33.69,-30.27,-1017.09,-0.33,-1.63,-1.02,-36.15,-5.85,-0.15,28.4
2026/04/13 15:04:29.85,IMU,47.36,-25.39,-1023.93,0.60,2.27,-0.65,-37.05,-6.00,-1.05,27.9
2026/04/13 15:04:29.95,IMU,52.73,-10.25,-1005.37,0.75,1.02,-0.37,-36.75,-5.55,-0.60,28.2
2026/04/13 15:04:30.05,IMU,42.48,-19.04,-1016.60,0.40,1.53,-1.60,-38.70,-8.40,3.30,28.4
2026/04/13 15:04:30.15,IMU,49.80,-20.02,-1018.55,0.96,0.79,-0.86,-36.00,-7.20,-0.30,28.2
2026/04/13 15:04:30.25,IMU,38.57,-13.67,-1020.51,0.27,1.55,-0.53,-36.30,-6.00,-0.60,28.2
2026/04/13 15:04:30.35,IMU,48.83,-14.65,-1019.04,-0.21,1.33,-0.43,-36.30,-5.25,-0.30,28.1
2026/04/13 15:04:30.45,IMU,49.32,-18.07,-1010.74,1.64,0.92,-0.88,-36.60,-5.10,-0.45,28.2
2026/04/13 15:04:30.56,IMU,47.85,-21.97,-1003.91,0.01,1.27,1.60,-37.05,-5.55,-1.80,28.4
2026/04/13 15:04:30.66,IMU,41.50,-13.67,-1005.86,-2.37,1.42,-0.77,-36.30,-5.55,-0.30,28.3
2026/04/13 15:04:30.76,IMU,53.22,-6.84,-1015.63,-0.26,0.44,1.23,-36.15,-5.85,0.15,28.4
2026/04/13 15:04:30.86,IMU,39.55,-18.07,-1022.46,1.38,0.61,-0.40,-35.85,-5.85,-0.15,28.4
2026/04/13 15:04:30.96,IMU,59.08,-8.30,-1001.46,0.08,2.13,-1.24,-37.05,-4.80,-1.80,28.0
2026/04/13 15:04:31.06,IMU,36.13,-13.67,-1019.04,-0.28,0.89,0.34,-37.80,-9.45,3.90,28.2
2026/04/13 15:04:31.16,IMU,50.29,-18.07,-1017.58,-0.51,0.81,-1.76,-36.15,-7.35,0.45,28.5
2026/04/13 15:04:31.26,IMU,58.59,-17.58,-1014.16,-0.82,2.73,2.08,-36.30,-6.75,0.00,28.4
2026/04/13 15:04:31.36,IMU,38.09,-21.97,-1027.34,-0.33,-1.64,0.62,-35.85,-5.85,-0.45,28.4
2026/04/13 15:04:31.46,IMU,52.73,-20.02,-1010.25,1.66,0.32,1.28,-36.30,-6.75,0.00,28.4
2026/04/13 15:04:31.56,IMU,54.20,-13.18,-1019.53,-0.19,-0.44,-1.68,-36.75,-4.80,0.60,28.2
2026/04/13 15:04:31.66,IMU,52.25,-21.00,-1015.63,0.24,1.36,1.84,-36.15,-6.60,0.45,28.3
2026/04/13 15:04:31.76,IMU,33.20,-16.60,-1016.60,-0.24,-1.50,-0.80,-36.90,-6.60,1.50,28.3
2026/04/13 15:04:31.86,IMU,43.46,-19.04,-1009.77,0.35,-0.15,3.78,-37.80,-6.75,0.00,28.4
2026/04/13 15:04:31.96,IMU,41.50,-11.72,-1019.53,1.48,1.20,2.00,-37.20,-6.90,-0.15,28.3
2026/04/13 15:04:32.06,IMU,36.13,-16.60,-1015.63,-0.81,0.53,-0.21,-35.85,-4.65,0.15,28.3
2026/04/13 15:04:32.16,IMU,41.02,-16.60,-1017.58,-0.39,0.83,-1.53,-36.90,-6.60,-0.15,28.3
2026/04/13 15:04:32.26,IMU,41.99,-26.37,-1023.93,-0.67,0.31,-3.19,-37.80,-7.20,0.60,28.2
2026/04/13 15:04:32.36,IMU,42.97,-19.04,-1020.02,0.54,0.27,3.15,-38.25,-4.80,-0.30,28.3
2026/04/13 15:04:32.46,IMU,39.06,-21.97,-1016.11,-0.12,-0.26,3.15,-34.95,-6.45,-0.30,28.1
2026/04/13 15:04:32.56,IMU,36.13,-7.81,-1020.51,1.14,-0.69,0.73,-36.90,-6.90,0.45,28.4
2026/04/13 15:04:32.66,IMU,41.99,-9.77,-1010.74,-0.53,1.08,-1.48,-36.90,-6.15,0.45,28.0
2026/04/13 15:04:32.76,IMU,55.18,-13.67,-1016.60,-0.55,0.99,-2.24,-37.20,-6.90,-0.90,28.4
2026/04/13 15:04:32.86,IMU,47.36,-16.11,-1020.02,0.82,-0.34,0.51,-35.10,-6.90,-0.15,28.2
2026/04/13 15:04:32.96,IMU,46.39,-9.77,-1014.65,-1.23,0.55,-0.84,-36.60,-5.85,0.45,28.2
2026/04/13 15:04:33.07,IMU,45.90,-18.55,-1005.86,2.46,-0.89,-0.18,-37.50,-7.20,0.30,28.1
2026/04/13 15:04:33.17,IMU,51.27,-12.70,-1008.79,2.22,0.56,0.74,-36.00,-5.55,-0.60,28.4
2026/04/13 15:04:33.27,IMU,63.96,-9.28,-1014.65,0.63,-1.68,-1.92,-36.15,-6.60,1.20,28.4
2026/04/13 15:04:33.37,IMU,49.80,-16.11,-1002.44,-0.24,1.98,0.50,-36.90,-6.60,0.90,28.4
2026/04/13 15:04:33.47,IMU,52.25,-16.11,-1017.09,-0.56,1.41,0.26,-36.75,-7.50,-2.10,28.2
2026/04/13 15:04:33.57,IMU,35.16,-9.77,-1013.67,1.43,-1.12,0.64,-37.50,-5.55,-1.80,28.2
2026/04/13 15:04:33.67,IMU,46.88,-9.28,-1016.11,0.62,-0.58,-0.63,-36.90,-6.90,0.45,28.2
2026/04/13 15:04:33.77,IMU,50.29,-19.04,-1015.14,-0.92,-1.15,0.96,-35.55,-5.55,0.60,28.1
2026/04/13 15:04:33.87,IMU,41.50,-27.34,-1011.72,-1.34,3.24,-0.31,-36.30,-6.45,0.60,28.4
2026/04/13 15:04:33.97,IMU,54.69,-23.93,-1013.18,-0.02,1.63,2.24,-36.30,-6.75,-1.05,28.2
2026/04/13 15:04:34.07,IMU,48.34,-24.90,-1019.04,0.26,-1.60,-0.39,-36.75,-5.25,0.00,28.4
2026/04/13 15:04:34.17,IMU,50.29,-9.28,-1012.70,-1.50,1.37,0.70,-36.60,-4.65,-0.45,28.4
2026/04/13 15:04:34.27,IMU,51.27,-21.00,-1027.83,0.15,0.66,0.63,-35.85,-6.90,-0.90,28.3
2026/04/13 15:04:34.37,IMU,41.99,-15.63,-1010.74,1.49,1.73,-1.42,-36.15,-6.90,0.90,28.1
2026/04/13 15:04:34.47,IMU,36.13,-8.79,-1007.81,-0.34,1.63,-0.97,-36.60,-6.15,-0.45,28.4
2026/04/13 15:04:34.57,IMU,60.55,-20.51,-1002.93,0.78,0.60,-0.43,-37.65,-6.90,0.15,28.1
2026/04/13 15:04:34.67,IMU,40.04,-17.09,-1018.07,1.70,1.66,-0.27,-36.75,-6.00,0.00,28.3
2026/04/13 15:04:34.77,IMU,56.15,-19.53,-1009.28,-0.35,0.18,1.06,-37.95,-6.15,-0.15,28.1
2026/04/13 15:04:34.87,IMU,47.85,-24.41,-1017.58,-0.07,1.36,-2.39,-36.90,-6.15,-0.15,28.4
2026/04/13 15:04:34.97,IMU,52.73,-13.18,-1007.32,1.05,0.31,-0.05,-36.60,-5.85,0.45,28.0
2026/04/13 15:04:35.07,IMU,50.78,-14.16,-1023.44,-1.08,-0.50,-0.76,-35.25,-6.45,-1.35,28.2
2026/04/13 15:04:35.17,IMU,40.04,-14.16,-1015.63,0.91,0.21,1.73,-37.05,-6.75,-0.30,28.4
2026/04/13 15:04:35.27,IMU,49.32,1.95,-1015.63,-0.61,-1.53,-1.53,-36.75,-6.75,-1.35,28.2
2026/04/13 15:04:35.37,IMU,43.46,-15.14,-1013.67,2.03,0.76,-1.18,-37.05,-6.75,-1.05,28.2
2026/04/13 15:04:35.47,IMU,40.53,-18.55,-1006.35,-0.03,-1.01,-1.67,-36.90,-7.35,1.20,28.4
2026/04/13 15:04:35.57,IMU,41.50,-21.00,-1004.88,0.79,-0.55,0.43,-36.00,-6.00,0.00,28.2
2026/04/13 15:04:35.67,IMU,49.80,-28.32,-1009.28,-0.76,-1.32,0.34,-37.50,-5.25,-1.35,28.4
2026/04/13 15:04:35.78,IMU,36.13,-28.32,-1015.14,0.73,-0.29,1.96,-36.60,-5.10,0.15,28.4
2026/04/13 15:04:35.88,IMU,45.90,-20.51,-1011.72,-0.39,-0.79,-1.87,-35.85,-6.15,-0.45,28.3
2026/04/13 15:04:35.98,IMU,31.74,-26.37,-1014.16,-0.07,3.12,-3.15,-36.75,-6.75,0.30,28.4
2026/04/13 15:04:36.08,IMU,47.36,-32.23,-1009.77,2.21,-1.30,-0.16,-36.90,-6.15,-0.45,28.4
2026/04/13 15:04:36.18,IMU,49.32,-27.83,-1002.44,0.42,-0.60,-0.11,-36.90,-6.15,-0.45,28.2
2026/04/13 15:04:36.28,IMU,49.80,-19.04,-1016.60,0.86,2.00,0.53,-36.15,-7.35,0.45,28.0
2026/04/13 15:04:36.38,IMU,50.29,-15.14,-1021.00,-0.24,3.02,-1.36,-36.15,-5.85,-0.90,28.4
2026/04/13 15:04:36.48,IMU,36.62,-20.51,-1013.67,0.07,0.59,-1.53,-35.85,-5.40,-0.45,28.3
2026/04/13 15:04:36.58,IMU,46.39,-22.95,-1007.32,-0.34,-0.11,2.18,-36.15,-6.15,-0.15,28.4
2026/04/13 15:04:36.68,IMU,44.92,-25.39,-1005.37,-0.37,0.03,0.12,-36.75,-7.20,0.00,28.1
2026/04/13 15:04:36.78,IMU,55.66,-22.95,-1003.42,-0.25,2.62,0.76,-36.00,-6.75,-0.60,28.4
2026/04/13 15:04:36.88,IMU,61.52,-20.51,-1014.65,1.21,0.55,-3.42,-35.85,-6.15,-0.90,28.0
2026/04/13 15:04:36.98,IMU,40.04,-34.67,-1011.72,1.31,2.93,-0.39,-36.15,-6.15,0.90,28.4
2026/04/13 15:04:37.08,IMU,51.27,-17.09,-998.05,-0.92,-0.47,-2.02,-36.60,-6.60,-0.45,28.4
2026/04/13 15:04:37.18,IMU,40.53,-19.04,-1018.55,0.46,0.03,-0.18,-37.05,-5.55,-1.05,28.1
2026/04/13 15:04:37.28,IMU,41.99,-15.14,-994.63,0.02,0.59,-0.40,-34.95,-4.80,-0.30,28.3
2026/04/13 15:04:37.38,IMU,36.62,-15.63,-1026.37,-1.07,1.60,0.73,-37.50,-6.45,0.30,28.4
2026/04/13 15:04:37.48,IMU,37.60,-6.84,-1013.67,1.77,0.73,-0.50,-37.65,-6.60,-0.15,28.0
2026/04/13 15:04:37.58,IMU,50.78,-20.02,-1018.07,0.50,-1.92,1.14,-36.30,-7.20,-0.30,28.2
2026/04/13 15:04:37.68,IMU,44.43,-9.28,-1014.16,1.27,1.09,0.31,-37.50,-6.00,0.00,28.4
2026/04/13 15:04:37.78,IMU,53.71,-21.00,-1005.37,-0.20,1.29,-2.86,-36.75,-7.20,0.60,28.2
2026/04/13 15:04:37.88,IMU,56.64,-26.37,-1010.74,-0.10,1.13,-0.91,-37.05,-6.75,1.05,27.9
2026/04/13 15:04:37.98,IMU,37.60,-19.53,-1017.58,-1.09,1.31,2.41,-36.00,-6.90,-0.15,28.4
2026/04/13 15:04:38.08,IMU,51.76,-9.77,-1015.63,1.44,0.58,-0.63,-36.15,-7.35,0.45,28.4
2026/04/13 15:04:38.18,IMU,50.29,-22.46,-1010.74,-1.41,0.50,-0.47,-36.60,-5.40,-0.90,28.2
2026/04/13 15:04:38.28,IMU,51.76,-16.11,-1007.81,0.86,2.08,0.62,-37.20,-5.85,-0.90,28.2
2026/04/13 15:04:38.38,IMU,49.32,-20.51,-1011.72,-1.78,1.40,-0.63,-36.90,-5.40,0.90,28.3
2026/04/13 15:04:38.49,IMU,49.32,-25.39,-1006.84,-0.39,-0.15,-0.60,-36.75,-5.25,0.00,28.2
2026/04/13 15:04:38.59,IMU,44.92,-22.95,-1009.77,1.64,-0.24,1.22,-36.15,-6.60,-1.20,28.2
2026/04/13 15:04:38.69,IMU,50.29,-3.42,-1028.32,3.02,-0.72,-1.99,-36.90,-5.10,-0.90,28.3
2026/04/13 15:04:38.79,IMU,51.27,-5.86,-1005.37,1.29,-1.02,-1.34,-36.30,-6.00,0.60,28.5
2026/04/13 15:04:38.89,IMU,35.64,-17.58,-1007.81,-1.51,0.50,2.27,-36.00,-6.45,0.00,28.5
2026/04/13 15:04:38.99,IMU,58.11,-13.67,-1010.25,-1.66,0.36,-1.99,-36.60,-5.40,-0.15,28.3
2026/04/13 15:04:39.09,IMU,51.27,-23.44,-1020.02,-1.50,-0.83,1.91,-37.50,-5.25,-1.05,28.4
2026/04/13 15:04:39.19,IMU,42.97,-26.86,-1023.44,1.85,-1.39,1.76,-39.45,-9.60,3.75,28.4
2026/04/13 15:04:39.29,IMU,45.41,-16.11,-1016.60,1.76,-1.49,-0.02,-36.15,-5.85,-0.45,28.4
2026/04/13 15:04:39.39,IMU,40.04,-23.93,-1023.93,0.69,0.64,-3.51,-36.60,-6.15,0.15,28.4
2026/04/13 15:04:39.49,IMU,37.60,-14.65,-1017.58,0.65,-0.74,1.61,-36.90,-5.40,0.90,28.2
2026/04/13 15:04:39.59,IMU,67.87,-20.51,-999.02,-0.52,1.25,-1.21,-35.55,-6.00,0.30,28.4
2026/04/13 15:04:39.69,IMU,58.59,-4.88,-1021.48,-0.11,0.48,-0.22,-36.15,-5.85,-0.90,28.2
2026/04/13 15:04:39.79,IMU,55.18,-16.11,-1013.18,-0.27,-0.50,0.39,-36.75,-6.00,0.30,28.5
2026/04/13 15:04:39.89,IMU,44.92,-17.58,-1008.30,-0.15,0.95,-0.37,-36.15,-5.40,-0.15,28.4
2026/04/13 15:04:39.99,IMU,51.27,-18.55,-1007.81,0.56,1.61,1.99,-36.75,-6.75,0.00,28.3
2026/04/13 15:04:40.09,IMU,46.88,-15.63,-1013.67,1.24,1.77,0.20,-36.60,-6.60,0.45,28.2
2026/04/13 15:04:40.19,IMU,37.60,-20.51,-1011.23,0.79,0.68,0.32,-40.65,-8.85,3.30,28.2
2026/04/13 15:04:40.29,IMU,44.43,-9.77,-1011.23,0.85,0.38,-0.20,-36.90,-4.65,0.15,28.4
2026/04/13 15:04:40.39,IMU,36.13,-27.34,-1006.84,2.27,-0.78,1.26,-36.15,-6.90,37.50,28.1
2026/04/13 15:04:40.49,IMU,54.20,-12.21,-1008.30,-0.94,0.57,-0.49,-35.25,-6.00,-1.05,28.1
2026/04/13 15:04:40.60,IMU,48.83,-14.65,-1011.23,0.47,1.48,-0.01,-35.85,-7.35,0.90,28.5
2026/04/13 15:04:40.70,IMU,47.36,-24.41,-1004.88,-2.09,-0.33,1.23,-36.75,-7.20,-1.35,28.4
2026/04/13 15:04:40.80,IMU,44.43,-18.55,-1008.30,-1.31,-0.30,-1.02,-36.90,-7.65,0.45,28.6
2026/04/13 15:04:40.90,IMU,56.15,-19.04,-1002.93,1.68,-0.56,0.02,-37.50,-6.45,-0.60,28.2
2026/04/13 15:04:41.00,IMU,43.95,-13.67,-1014.16,-0.84,1.43,-1.13,-36.00,-4.80,0.00,28.2
2026/04/13 15:04:41.10,IMU,54.69,-23.44,-1017.09,1.01,-1.69,1.87,-36.75,-5.25,-0.60,28.3
2026/04/13 15:04:41.20,IMU,56.15,-20.02,-1011.23,0.10,0.87,-0.24,-36.30,-4.05,-0.60,28.1
2026/04/13 15:04:41.30,IMU,43.46,-7.81,-1012.70,-1.51,-1.72,-0.11,-37.20,-6.15,0.45,27.9
2026/04/13 15:04:41.40,IMU,36.13,-7.81,-999.51,-2.09,0.73,-0.01,-37.05,-4.80,0.00,28.3
2026/04/13 15:04:41.50,IMU,52.73,-24.41,-1022.95,0.68,0.55,2.15,-35.85,-6.15,0.45,28.4
2026/04/13 15:04:41.60,IMU,39.06,-12.70,-1009.28,-0.27,-1.64,0.67,-35.55,-5.55,0.30,28.4
2026/04/13 15:04:41.70,IMU,50.78,-8.30,-1017.58,0.12,-0.25,-1.73,-37.05,-6.75,0.60,28.3
2026/04/13 15:04:41.80,IMU,47.85,-22.95,-1024.41,1.26,1.61,3.61,-35.25,-6.00,-0.30,28.5
2026/04/13 15:04:41.90,IMU,46.39,-21.48,-1014.65,-1.40,1.85,-0.02,-37.05,-6.00,-0.60,28.0
2026/04/13 15:04:42.00,IMU,40.53,-18.07,-1017.58,-0.08,2.68,0.84,-37.65,-6.60,0.90,28.3
2026/04/13 15:04:42.10,IMU,43.46,-18.55,-1026.86,0.27,-0.75,1.11,-37.50,-5.55,1.05,28.2
2026/04/13 15:04:42.20,IMU,45.90,-20.51,-1007.81,-1.79,0.65,-0.24,-35.55,-7.20,-0.60,28.4
2026/04/13 15:04:42.30,IMU,47.36,-23.44,-998.54,0.00,-0.79,-3.08,-35.55,-6.45,-1.05,28.2
2026/04/13 15:04:42.40,IMU,47.85,-22.95,-1009.28,-0.34,0.90,0.98,-36.60,-6.60,-1.50,28.4
2026/04/13 15:04:42.50,IMU,49.32,-11.72,-1014.16,-0.33,-0.24,-0.54,-36.00,-6.00,-1.05,28.5
2026/04/13 15:04:42.60,IMU,58.59,-13.18,-1008.79,0.10,1.31,0.37,-37.50,-7.95,0.30,28.3
2026/04/13 15:04:42.70,IMU,31.74,-17.09,-1001.46,0.27,-0.80,-0.23,-35.55,-6.45,-0.30,28.2
2026/04/13 15:04:42.80,IMU,47.36,-24.90,-1001.95,-0.02,-0.43,-1.06,-37.20,-6.15,0.45,28.0
2026/04/13 15:04:42.90,IMU,47.36,-22.46,-1026.86,0.73,-1.40,-0.20,-36.15,-7.35,0.15,28.2
2026/04/13 15:04:43.00,IMU,45.90,2.93,-1023.44,-0.47,1.31,-3.07,-36.75,-6.00,0.30,28.4
2026/04/13 15:04:43.10,IMU,44.43,-21.00,-1014.16,-0.60,0.13,-3.45,-36.15,-5.85,0.45,28.1
2026/04/13 15:04:43.20,IMU,49.80,-19.53,-1012.21,0.18,-0.18,1.97,-37.20,-7.65,0.45,28.4
2026/04/13 15:04:43.31,IMU,42.97,-13.18,-1017.09,2.37,-0.32,1.44,-35.85,-6.15,-0.45,28.3
2026/04/13 15:04:43.41,IMU,47.36,-20.51,-1013.18,0.57,-1.21,-2.06,-35.85,-6.60,0.15,28.0
2026/04/13 15:04:43.51,IMU,42.97,-32.23,-1010.25,-1.18,-1.26,-0.67,-36.60,-6.90,-1.20,28.4
2026/04/13 15:04:43.61,IMU,37.11,-3.42,-1017.58,-0.85,-0.53,1.96,-35.55,-6.45,-0.60,28.1
2026/04/13 15:04:43.71,IMU,46.88,-25.88,-1013.18,0.02,0.50,1.62,-36.60,-6.60,-0.90,28.1
2026/04/13 15:04:43.81,IMU,53.71,-22.46,-1013.67,0.66,-0.47,-0.61,-36.15,-5.85,0.90,28.2
2026/04/13 15:04:43.91,IMU,26.86,-20.51,-1009.77,1.42,0.76,1.23,-37.05,-6.45,0.30,28.3
2026/04/13 15:04:44.01,IMU,56.15,-11.72,-1008.30,-0.27,-1.08,-1.02,-36.75,-7.20,-0.60,28.4
2026/04/13 15:04:44.11,IMU,51.27,-10.74,-1009.28,1.44,-0.24,-2.16,-36.30,-5.55,0.60,28.4
2026/04/13 15:04:44.21,IMU,42.97,-11.72,-1016.11,1.76,0.60,2.61,-36.60,-5.40,0.15,28.3
2026/04/13 15:04:44.31,IMU,36.62,-14.16,-1008.30,-1.18,-0.17,-0.07,-36.60,-6.15,-0.45,28.0
2026/04/13 15:04:44.41,IMU,55.18,-21.48,-1016.60,2.03,1.64,0.04,-36.60,-5.10,-0.15,28.4
2026/04/13 15:04:44.51,IMU,48.83,-37.11,-1005.37,1.14,2.75,2.27,-35.55,-6.45,0.00,28.2
2026/04/13 15:04:44.61,IMU,60.55,-13.67,-1010.25,0.77,-0.10,1.92,-36.00,-7.20,-0.30,28.3
2026/04/13 15:04:44.71,IMU,53.22,-21.97,-1017.58,1.80,0.02,-0.47,-37.80,-4.50,1.80,28.4
2026/04/13 15:04:44.81,IMU,44.43,-18.55,-1019.04,-2.01,2.08,-0.13,-36.15,-5.10,-0.45,28.4
2026/04/13 15:04:44.91,IMU,43.46,-7.81,-1021.48,-0.34,1.31,0.73,-37.65,-6.60,-0.45,28.2
2026/04/13 15:04:45.01,IMU,47.85,-18.55,-1007.32,0.61,0.03,-0.29,-36.30,-6.00,0.00,28.3
2026/04/13 15:04:45.11,IMU,56.15,-12.70,-1012.21,0.67,-1.47,2.63,-36.30,-5.55,-0.30,28.1
2026/04/13 15:04:45.21,IMU,57.62,-14.16,-1012.70,0.59,-0.23,0.63,-36.30,-6.00,-0.30,28.3
2026/04/13 15:04:45.31,IMU,41.02,-3.91,-1013.67,0.49,0.07,-0.95,-36.15,-6.15,-1.20,28.1
2026/04/13 15:04:45.41,IMU,50.29,-24.41,-1014.65,-1.68,-2.05,2.30,-36.15,-5.85,-0.45,28.4
2026/04/13 15:04:45.51,IMU,54.20,-17.09,-1009.28,0.41,0.49,-0.54,-37.95,-5.85,0.45,28.2
2026/04/13 15:04:45.61,IMU,50.78,-19.53,-1017.09,-1.31,0.33,1.55,-37.20,-6.15,0.15,28.6
2026/04/13 15:04:45.71,IMU,41.02,-16.60,-1011.72,0.16,0.18,-1.08,-36.90,-5.10,-0.15,28.1
2026/04/13 15:04:45.81,IMU,45.90,-16.60,-1013.67,-0.37,-0.14,-1.43,-37.05,-6.45,-0.60,28.4
2026/04/13 15:04:45.91,IMU,43.46,-25.88,-1000.98,-0.76,2.13,0.27,-37.65,-6.90,0.45,28.0
2026/04/13 15:04:46.02,IMU,57.13,-16.11,-1014.65,-1.40,0.47,1.92,-36.75,-6.45,-1.05,28.1
2026/04/13 15:04:46.12,IMU,49.32,-17.58,-1008.79,-0.31,2.44,0.86,-36.60,-6.15,-0.15,28.2
2026/04/13 15:04:46.22,IMU,44.43,-11.72,-1012.21,0.70,-0.75,-2.44,-35.25,-6.45,0.30,28.1
2026/04/13 15:04:46.32,IMU,49.80,-21.48,-1012.21,0.99,0.33,-1.50,-36.30,-7.20,-0.30,28.1
2026/04/13 15:04:46.42,IMU,53.71,-9.77,-1022.95,0.12,0.37,0.31,-37.20,-5.40,-0.90,28.1
2026/04/13 15:04:46.52,IMU,45.41,-15.63,-1015.14,0.24,-1.37,-0.31,-35.85,-5.85,0.15,28.3
2026/04/13 15:04:46.62,IMU,57.13,-6.84,-1002.44,0.96,-1.01,1.76,-36.15,-4.65,0.15,28.2
2026/04/13 15:04:46.72,IMU,53.22,-4.88,-1010.74,-0.42,-1.27,-1.19,-36.75,-6.00,0.00,28.4
2026/04/13 15:04:46.82,IMU,47.36,-14.65,-1021.00,-0.27,0.63,-0.56,-36.60,-6.90,-0.45,28.4
2026/04/13 15:04:46.92,IMU,38.57,-11.23,-1021.00,1.49,-0.06,0.53,-36.30,-5.55,-0.30,28.4
2026/04/13 15:04:47.02,IMU,38.09,-17.58,-1007.81,-0.18,0.21,-0.89,-35.55,-6.45,0.60,28.4
2026/04/13 15:04:47.12,IMU,39.55,-14.65,-1015.14,-0.92,2.53,-0.19,-36.00,-5.25,1.35,28.6
2026/04/13 15:04:47.22,IMU,44.43,-20.02,-1022.95,0.22,1.05,-0.71,-36.75,-7.50,-0.30,28.4
2026/04/13 15:04:47.32,IMU,44.92,-19.53,-1007.81,0.73,0.66,1.43,-37.20,-6.60,-0.90,28.4
2026/04/13 15:04:47.42,IMU,60.55,-15.14,-1018.07,0.15,0.86,0.89,-36.15,-6.15,0.45,28.1
2026/04/13 15:04:47.52,IMU,53.22,-14.16,-1000.98,0.79,0.49,-2.63,-36.00,-5.25,0.60,28.2
2026/04/13 15:04:47.62,IMU,26.37,-18.55,-1010.74,-1.44,2.74,-0.44,-36.00,-6.75,-1.05,28.1
2026/04/13 15:04:47.72,IMU,53.71,-27.83,-1011.72,0.53,2.04,0.30,-36.00,-5.55,-0.30,28.4
2026/04/13 15:04:47.82,IMU,40.04,-12.70,-1021.97,-0.16,2.34,0.17,-37.50,-6.75,-0.30,28.0
2026/04/13 15:04:47.92,IMU,38.09,-18.55,-1011.23,0.74,-0.53,1.31,-35.85,-7.65,0.45,28.1
2026/04/13 15:04:48.02,IMU,37.60,-12.21,-1012.70,-0.93,1.79,3.64,-36.90,-6.15,-0.45,28.2
2026/04/13 15:04:48.12,IMU,38.57,-16.60,-1002.44,-2.18,2.11,1.21,-35.40,-5.85,-0.15,28.5
2026/04/13 15:04:48.22,IMU,45.90,-12.21,-1007.81,1.98,-0.73,0.60,-36.00,-6.75,-0.30,28.1
2026/04/13 15:04:48.32,IMU,44.43,-18.55,-1004.88,1.16,2.67,-0.86,-39.90,-8.40,2.70,28.4
2026/04/13 15:04:48.42,IMU,48.83,-19.53,-1014.65,0.92,1.11,-2.18,-37.05,-6.00,-0.30,28.3
2026/04/13 15:04:48.52,IMU,60.55,-17.09,-1013.18,-0.73,-0.69,-0.47,-36.15,-6.60,0.45,28.6
2026/04/13 15:04:48.62,IMU,45.41,-20.51,-1009.28,0.37,-2.44,-0.83,-36.90,-6.15,0.45,28.4
2026/04/13 15:04:48.73,IMU,47.36,-12.70,-1010.25,-0.12,-0.45,-0.10,-36.90,-5.40,-0.15,28.4
2026/04/13 15:04:48.83,IMU,43.46,-18.07,-1027.34,0.33,0.95,-1.39,-36.75,-5.25,-0.30,28.4
2026/04/13 15:04:48.93,IMU,41.02,-23.93,-1016.11,-0.34,-0.30,-0.47,-37.20,-6.60,0.15,28.3
2026/04/13 15:04:49.03,IMU,35.16,-13.67,-1018.07,0.35,-0.27,-0.40,-36.75,-6.45,0.30,28.1
2026/04/13 15:04:49.13,IMU,47.85,-5.37,-1006.84,-0.22,1.16,3.40,-37.05,-5.25,-1.05,28.1
2026/04/13 15:04:49.23,IMU,53.22,-14.16,-1021.00,0.05,0.27,2.05,-36.75,-6.75,0.00,28.4
2026/04/13 15:04:49.33,IMU,44.43,-14.16,-1006.84,0.02,0.79,2.15,-39.90,-9.60,4.80,28.0
2026/04/13 15:04:49.43,IMU,47.85,-29.30,-1010.25,0.00,1.54,-1.50,-37.05,-5.25,-0.60,28.2
2026/04/13 15:04:49.53,IMU,41.99,-22.95,-1021.97,0.09,-1.69,1.72,-36.15,-5.85,-0.15,28.4
2026/04/13 15:04:49.63,IMU,49.32,-26.86,-1013.67,-0.12,0.77,-0.18,-36.30,-6.75,0.30,28.0
2026/04/13 15:04:49.73,IMU,56.15,-17.58,-1006.35,-2.02,0.80,-0.89,-37.20,-7.65,-0.15,27.9
2026/04/13 15:04:49.83,IMU,49.32,-12.70,-1022.46,-0.65,-0.49,-0.15,-36.90,-6.90,-0.15,28.2
2026/04/13 15:04:49.93,IMU,53.22,-17.58,-1003.42,-0.08,1.51,-1.30,-35.10,-6.60,0.90,28.3
2026/04/13 15:04:50.03,IMU,51.27,-22.95,-1017.09,-0.50,0.15,-0.30,-36.30,-6.75,-1.35,28.4
2026/04/13 15:04:50.13,IMU,46.88,-8.79,-1029.79,0.95,-2.29,2.37,-36.15,-6.15,-0.15,28.2
2026/04/13 15:04:50.23,IMU,48.83,-12.70,-1006.35,0.82,-0.89,-1.35,-36.75,-6.00,-1.05,28.3
2026/04/13 15:04:50.33,IMU,40.53,-20.51,-1018.07,1.86,-0.85,0.34,-36.60,-5.10,-0.45,28.3
2026/04/13 15:04:50.43,IMU,33.69,-13.18,-1008.79,2.04,-0.89,-2.59,-36.15,-4.65,-0.15,28.3
2026/04/13 15:04:50.53,IMU,41.02,-29.79,-1024.90,0.10,-0.10,1.65,-36.30,-6.00,1.05,28.2
2026/04/13 15:04:50.63,IMU,33.69,-22.95,-1013.67,0.24,0.47,-1.37,-37.80,-6.75,-0.60,28.3
2026/04/13 15:04:50.73,IMU,45.41,-13.18,-1016.11,0.72,-0.27,1.56,-36.30,-5.55,0.00,28.3
2026/04/13 15:04:50.84,IMU,42.97,-23.93,-1017.58,0.68,-0.80,0.39,-36.30,-5.25,0.00,28.3
2026/04/13 15:04:50.94,IMU,39.55,-12.70,-1019.53,-1.00,2.10,-0.32,-35.55,-6.00,0.60,28.1
2026/04/13 15:04:51.04,IMU,58.59,-16.11,-1009.28,-0.44,-0.01,-0.72,-37.05,-6.45,0.30,28.3
2026/04/13 15:04:51.14,IMU,51.27,-17.58,-1007.81,0.39,-0.18,-2.15,-36.90,-6.60,-1.20,28.4
2026/04/13 15:04:51.24,IMU,52.25,-9.77,-1011.23,0.05,0.68,-1.79,-37.50,-6.00,1.05,28.3
2026/04/13 15:04:51.34,IMU,47.36,-19.04,-1013.18,1.18,1.91,-0.95,-38.25,-7.20,0.30,28.4
2026/04/13 15:04:51.44,IMU,51.27,-19.53,-1012.70,1.13,1.27,1.39,-37.50,-6.75,-0.30,28.4
2026/04/13 15:04:51.54,IMU,39.55,-16.60,-1010.25,0.08,-1.27,-0.23,-36.15,-6.15,0.45,28.4
2026/04/13 15:04:51.64,IMU,42.48,-10.74,-1011.23,-0.55,-0.82,-0.80,-36.30,-8.70,0.00,28.3
2026/04/13 15:04:51.74,IMU,47.36,-6.35,-1018.07,1.69,-0.77,-1.07,-37.05,-6.75,0.60,28.3
2026/04/13 15:04:51.84,IMU,56.64,-11.23,-1015.14,-0.74,1.99,-0.69,-36.15,-6.15,-0.45,28.2
2026/04/13 15:04:51.94,IMU,41.99,-13.67,-1013.18,1.50,0.29,-0.53,-36.75,-6.75,-0.60,28.2
2026/04/13 15:04:52.04,IMU,52.73,-17.09,-998.54,-1.60,0.40,1.24,-36.75,-6.00,1.05,28.3
2026/04/13 15:04:52.14,IMU,51.27,-10.74,-1008.30,-0.31,-0.36,-0.85,-35.85,-5.40,0.15,28.4
2026/04/13 15:04:52.24,IMU,51.27,-12.70,-1011.23,1.82,2.02,0.12,-35.25,-5.55,0.00,28.4
2026/04/13 15:04:52.34,IMU,39.06,-16.60,-1015.63,1.47,-1.03,0.50,-34.95,-5.25,-0.60,28.2
2026/04/13 15:04:52.44,IMU,45.41,-17.58,-1015.63,-0.10,-1.46,-1.23,-36.60,-7.35,-0.45,28.0
2026/04/13 15:04:52.54,IMU,48.83,-17.58,-1013.18,1.08,0.75,1.27,-36.60,-5.85,0.15,28.0
2026/04/13 15:04:52.64,IMU,46.39,-21.48,-1014.65,0.75,0.41,-1.05,-37.20,-6.60,-1.20,28.4
2026/04/13 15:04:52.74,IMU,45.41,-11.72,-1017.09,-0.10,0.16,1.48,-37.20,-5.85,-0.45,28.4
2026/04/13 15:04:52.84,IMU,56.15,-9.77,-1017.58,2.18,-0.21,0.24,-35.55,-6.75,1.05,28.4
2026/04/13 15:04:52.94,IMU,45.90,-15.14,-1024.90,0.39,-0.80,1.87,-36.90,-6.15,0.45,28.1
2026/04/13 15:04:53.04,IMU,39.55,-19.04,-1007.32,0.18,-1.32,0.13,-36.75,-6.00,0.30,28.2
2026/04/13 15:04:53.14,IMU,47.85,-6.84,-1004.88,2.03,-0.02,2.05,-36.75,-6.00,-0.60,28.2
2026/04/13 15:04:53.24,IMU,42.97,-12.21,-1004.39,0.81,-0.18,-3.21,-36.15,-6.15,-1.20,28.4
2026/04/13 15:04:53.34,IMU,36.62,-18.55,-1012.21,0.63,-1.11,1.92,-37.20,-6.15,0.15,28.4
2026/04/13 15:04:53.44,IMU,50.29,-29.30,-1012.70,1.01,0.57,0.45,-35.85,-6.60,-0.15,28.4
2026/04/13 15:04:53.55,IMU,37.60,-8.79,-1018.55,0.63,-0.07,-0.72,-36.60,-5.40,-0.45,28.2
2026/04/13 15:04:53.65,IMU,51.27,-19.53,-1017.09,1.47,-0.24,-1.42,-37.50,-7.95,-0.30,28.3
2026/04/13 15:04:53.75,IMU,46.88,-8.79,-1012.70,-0.02,-1.02,0.19,-36.15,-4.35,0.15,28.3
2026/04/13 15:04:53.85,IMU,49.80,-15.14,-1003.91,0.72,-0.13,-1.73,-36.00,-6.45,0.60,28.2
2026/04/13 15:04:53.95,IMU,43.46,-16.60,-1021.48,-2.20,2.65,-1.36,-36.75,-6.00,0.30,28.3
2026/04/13 15:04:54.05,IMU,52.25,-13.18,-1016.11,1.02,-0.10,0.23,-36.00,-6.00,-1.05,28.1
2026/04/13 15:04:54.15,IMU,57.62,-18.55,-1012.21,-0.12,-0.74,-0.44,-36.15,-6.60,0.15,28.4
2026/04/13 15:04:54.25,IMU,60.55,-24.90,-1018.55,0.18,-1.20,0.88,-36.30,-6.00,-1.05,28.4
2026/04/13 15:04:54.35,IMU,44.92,-24.41,-1014.65,1.51,0.20,0.10,-36.90,-6.60,-0.45,28.2
2026/04/13 15:04:54.45,IMU,48.34,-25.88,-1008.30,-1.21,1.38,0.04,-36.60,-7.35,0.15,28.2
2026/04/13 15:04:54.55,IMU,42.97,-11.72,-1009.77,1.24,1.13,-1.85,-36.60,-6.60,-0.15,28.4
2026/04/13 15:04:54.65,IMU,53.22,-6.84,-1013.67,0.18,0.55,1.81,-36.30,-4.80,-0.60,28.4
2026/04/13 15:04:54.75,IMU,56.15,-19.04,-1010.25,1.05,-0.77,-0.98,-36.00,-6.45,-0.30,28.4
2026/04/13 15:04:54.85,IMU,41.99,-17.09,-1020.02,1.25,0.44,-0.19,-38.40,-6.15,-0.15,28.3
2026/04/13 15:04:54.95,IMU,40.04,-18.07,-1018.55,-1.37,1.24,0.40,-37.65,-6.15,-0.90,28.4
2026/04/13 15:04:55.05,IMU,46.88,-18.07,-1029.79,-1.25,1.08,-0.73,-36.15,-6.60,-0.90,28.5
2026/04/13 15:04:55.15,IMU,61.04,-8.30,-1016.11,1.64,-0.37,-0.35,-36.90,-6.90,-0.90,28.4
2026/04/13 15:04:55.25,IMU,42.48,-24.90,-1022.95,0.24,-0.11,0.70,-37.20,-4.65,-0.15,28.5
2026/04/13 15:04:55.35,IMU,48.34,-13.18,-1018.07,0.51,0.02,0.95,-36.75,-6.75,0.00,28.1
2026/04/13 15:04:55.45,IMU,62.01,-20.51,-1019.04,-0.95,0.37,-0.73,-37.05,-6.00,1.80,28.4
2026/04/13 15:04:55.55,IMU,45.90,-17.58,-1010.25,-0.09,0.29,1.50,-36.75,-5.25,0.00,28.1
2026/04/13 15:04:55.65,IMU,44.92,-10.74,-1008.30,-0.03,0.11,0.15,-36.60,-6.15,-1.20,28.0
2026/04/13 15:04:55.75,IMU,45.41,-19.53,-1009.28,1.67,1.24,3.80,-36.60,-5.85,0.45,28.4
2026/04/13 15:04:55.85,IMU,39.06,-4.39,-1004.39,1.66,0.44,3.01,-36.30,-6.45,-0.60,28.4
2026/04/13 15:04:55.95,IMU,58.11,-22.46,-1010.74,1.33,-0.35,-0.66,-36.90,-6.15,-0.45,28.2
2026/04/13 15:04:56.05,IMU,53.71,-9.28,-1002.93,-0.11,2.26,-0.05,-35.55,-6.00,-0.30,28.4
2026/04/13 15:04:56.15,IMU,40.53,-10.25,-1002.93,0.00,-0.60,2.82,-34.95,-5.25,-0.30,28.3
2026/04/13 15:04:56.26,IMU,46.39,-9.77,-1020.51,-1.04,1.80,2.89,-36.90,-5.10,-0.45,28.3
2026/04/13 15:04:56.36,IMU,41.99,-9.28,-1013.18,0.46,-0.85,0.16,-36.00,-4.50,-0.60,28.4
2026/04/13 15:04:56.46,IMU,44.92,-16.11,-1020.51,1.39,-0.02,1.46,-38.55,-7.50,1.80,28.0
2026/04/13 15:04:56.56,IMU,41.99,-28.81,-1024.41,0.36,-0.40,1.06,-36.60,-6.60,0.15,28.2
2026/04/13 15:04:56.66,IMU,45.41,-18.07,-1014.65,-0.15,0.70,0.24,-35.25,-5.55,0.30,28.4
2026/04/13 15:04:56.76,IMU,55.66,-10.74,-1007.81,0.08,1.36,-2.05,-37.20,-6.15,-0.90,28.4
2026/04/13 15:04:56.86,IMU,53.22,-20.02,-1019.04,0.42,-0.58,-0.44,-36.90,-6.90,0.45,28.4
2026/04/13 15:04:56.96,IMU,43.95,-11.72,-1012.70,1.39,0.40,-3.34,-37.65,-8.40,-0.45,28.3
2026/04/13 15:04:57.06,IMU,54.69,-21.97,-1009.77,0.51,1.37,-0.11,-37.65,-6.15,-0.45,28.4
2026/04/13 15:04:57.16,IMU,54.20,-10.74,-1009.28,-0.69,1.10,-1.53,-36.90,-5.10,0.15,28.4
2026/04/13 15:04:57.26,IMU,51.27,-8.79,-1022.46,-1.23,0.02,-0.53,-36.15,-6.15,0.90,28.3
2026/04/13 15:04:57.36,IMU,52.73,-21.48,-1003.91,1.44,0.62,0.47,-37.65,-5.40,-0.45,28.6
2026/04/13 15:04:57.46,IMU,42.48,-14.16,-1015.14,1.10,0.60,-1.02,-35.85,-6.60,-1.20,28.0
2026/04/13 15:04:57.56,IMU,46.39,-22.46,-1016.11,-1.27,0.86,0.88,-36.75,-6.75,-0.60,28.3
2026/04/13 15:04:57.66,IMU,52.25,-11.72,-1019.04,-1.31,2.08,-0.17,-36.30,-5.55,-0.60,28.4
2026/04/13 15:04:57.76,IMU,54.20,-14.65,-1015.63,1.20,-2.30,-2.05,-37.20,-8.10,-0.90,28.3
2026/04/13 15:04:57.86,IMU,31.74,-23.93,-1008.79,-0.47,-0.05,-2.40,-36.00,-5.55,-0.60,28.4
2026/04/13 15:04:57.96,IMU,49.80,-23.93,-1009.77,-0.04,2.00,0.24,-35.85,-5.85,0.45,28.4
2026/04/13 15:04:58.06,IMU,45.90,-11.72,-1014.65,0.35,0.81,-1.52,-36.75,-6.75,-1.35,28.4
2026/04/13 15:04:58.16,IMU,41.99,-15.63,-1012.70,0.61,0.76,3.18,-36.00,-5.55,-0.60,28.4
2026/04/13 15:04:58.26,IMU,52.25,-22.46,-1022.46,-0.83,-0.69,0.06,-35.85,-5.40,-0.15,28.3
2026/04/13 15:04:58.36,IMU,46.88,-9.77,-1029.30,-0.36,-1.90,0.56,-36.90,-6.60,1.20,28.4
2026/04/13 15:04:58.46,IMU,41.02,-18.07,-1011.23,0.25,3.11,1.46,-36.75,-5.25,0.00,28.5
2026/04/13 15:04:58.57,IMU,39.06,-11.23,-1006.35,-0.94,-1.15,-2.81,-36.15,-6.15,-0.45,28.4
2026/04/13 15:04:58.67,IMU,44.43,-15.63,-1012.21,-0.15,-0.17,-0.15,-36.90,-6.90,0.45,28.3
2026/04/13 15:04:58.77,IMU,51.76,-0.98,-1012.21,0.43,-1.35,-1.92,-35.85,-6.90,0.90,28.4
2026/04/13 15:04:58.87,IMU,35.64,-10.74,-1018.07,0.92,1.60,-1.63,-37.20,-6.15,0.15,28.4
2026/04/13 15:04:58.97,IMU,50.29,-18.07,-1014.65,-1.60,1.56,2.01,-36.60,-6.90,0.15,28.3
2026/04/13 15:04:59.07,IMU,49.80,-19.53,-1023.44,0.49,-1.25,0.63,-36.60,-6.90,-0.45,28.5
2026/04/13 15:04:59.17,IMU,43.95,-7.32,-1011.23,1.53,0.08,-0.29,-36.60,-5.40,-1.95,28.4
2026/04/13 15:04:59.27,IMU,50.78,-12.21,-1004.88,-0.30,1.59,0.71,-37.50,-6.00,0.00,28.3
2026/04/13 15:04:59.37,IMU,40.04,-26.37,-1009.28,1.29,-0.03,-2.67,-36.75,-6.00,-1.35,28.4
2026/04/13 15:04:59.47,IMU,51.76,-24.90,-1007.81,-0.69,-0.83,-0.91,-37.20,-7.35,0.45,28.3
2026/04/13 15:04:59.57,IMU,57.13,-14.65,-1014.16,-0.61,0.73,0.41,-36.90,-5.85,-1.20,28.6
2026/04/13 15:04:59.67,IMU,37.60,-21.48,-1020.51,-0.31,0.31,-1.66,-35.55,-6.00,0.60,28.4
2026/04/13 15:04:59.77,IMU,41.50,-13.18,-1010.74,1.16,-0.98,0.37,-36.15,-6.60,0.90,28.5
2026/04/13 15:04:59.87,IMU,52.25,-12.21,-1011.72,-1.21,2.05,-2.50,-36.90,-6.90,0.90,28.2
2026/04/13 15:04:59.97,IMU,56.15,-25.39,-1019.53,0.44,-1.45,-3.95,-35.55,-5.25,0.00,28.4
2026/04/13 15:05:00.07,IMU,42.97,-21.00,-1012.21,0.69,0.67,0.24,-36.30,-7.20,-0.60,28.2
2026/04/13 15:05:00.17,IMU,50.78,-20.51,-1023.44,0.70,-3.08,0.54,-36.00,-5.55,0.00,28.4
2026/04/13 15:05:00.27,IMU,59.08,-25.88,-1019.53,-0.21,-0.20,-0.03,-37.65,-6.60,0.45,28.2
2026/04/13 15:05:00.37,IMU,50.78,-21.97,-1012.70,-2.31,1.93,0.05,-36.60,-7.35,-0.15,28.3
2026/04/13 15:05:00.47,IMU,46.88,-25.88,-1024.41,0.34,0.44,0.40,-37.05,-5.55,0.30,28.3
2026/04/13 15:05:00.57,IMU,51.76,-17.58,-1016.60,-0.23,1.56,-2.10,-36.15,-6.90,-1.20,28.1
2026/04/13 15:05:00.67,IMU,54.20,-15.63,-1009.77,0.11,2.38,-1.86,-36.15,-6.60,0.15,28.4
2026/04/13 15:05:00.77,IMU,52.25,-23.44,-1006.35,0.43,0.03,1.39,-34.95,-6.75,0.00,28.3
2026/04/13 15:05:00.87,IMU,52.25,-16.11,-1020.51,-0.02,1.41,1.21,-36.30,-6.75,-1.05,28.0
2026/04/13 15:05:00.97,IMU,45.90,-18.55,-1008.79,-0.66,-0.31,-0.09,-36.75,-7.95,0.30,28.2
2026/04/13 15:05:01.07,IMU,48.34,-20.51,-1010.25,-1.18,0.84,-1.40,-37.80,-7.20,-1.05,28.4
2026/04/13 15:05:01.18,IMU,50.78,-13.18,-1019.04,0.38,-1.21,-0.47,-37.05,-5.25,1.05,28.0
2026/04/13 15:05:01.28,IMU,54.20,-10.74,-1004.39,0.56,-1.30,-0.59,-37.20,-7.35,0.15,28.4
2026/04/13 15:05:01.38,IMU,55.66,-13.67,-1001.95,0.15,0.06,1.21,-35.40,-6.60,-0.15,28.4
2026/04/13 15:05:01.48,IMU,49.80,-16.60,-1013.67,1.01,-0.59,-0.56,-36.30,-7.20,-0.60,28.6
2026/04/13 15:05:01.58,IMU,37.60,-18.07,-1018.07,-1.44,-0.04,0.60,-37.80,-5.55,-0.60,28.2
2026/04/13 15:05:01.68,IMU,45.41,-21.48,-1008.30,0.71,1.00,0.02,-36.75,-5.55,-0.30,28.4
2026/04/13 15:05:01.78,IMU,53.22,-17.09,-1019.04,-0.69,0.67,-1.72,-36.75,-6.00,0.00,28.4
2026/04/13 15:05:01.88,IMU,46.88,-7.81,-1011.72,0.90,0.82,0.53,-35.10,-4.35,-0.90,28.5
2026/04/13 15:05:01.98,IMU,40.04,-19.04,-1003.91,-1.24,-0.59,-2.85,-38.70,-6.60,0.45,28.0
2026/04/13 15:05:02.08,IMU,40.04,-16.11,-1002.44,1.40,-2.85,2.51,-36.90,-6.90,0.15,28.6
2026/04/13 15:05:02.18,IMU,37.60,-8.79,-1014.16,-0.04,0.96,-1.61,-37.20,-7.65,0.15,28.2
2026/04/13 15:05:02.28,IMU,43.95,-14.65,-1026.37,-1.52,-1.02,-2.25,-36.75,-7.20,0.00,28.4
2026/04/13 15:05:02.38,IMU,35.64,-1.95,-1008.79,1.75,0.32,0.21,-37.65,-6.90,-0.15,28.5
2026/04/13 15:05:02.48,IMU,50.78,-22.95,-1006.84,1.54,1.02,-1.37,-36.60,-6.90,-0.15,28.4
2026/04/13 15:05:02.58,IMU,47.36,-18.07,-1014.16,-0.28,2.50,2.56,-35.85,-8.40,0.90,28.2
2026/04/13 15:05:02.68,IMU,44.43,-11.72,-1010.25,-0.88,0.62,2.21,-36.15,-7.35,-0.15,28.2
2026/04/13 15:05:02.78,IMU,52.73,-12.70,-1017.09,-1.37,1.02,-1.95,-37.20,-4.65,-0.15,28.4
2026/04/13 15:05:02.88,IMU,47.36,-7.81,-1014.16,-0.37,-0.31,-1.16,-36.30,-6.75,-1.05,28.3
2026/04/13 15:05:02.98,IMU,57.62,-16.60,-1011.72,2.21,-0.68,0.48,-35.85,-6.90,-1.20,28.3
2026/04/13 15:05:03.08,IMU,51.27,-20.02,-1006.84,0.63,-0.84,-2.34,-35.25,-6.75,0.00,28.4
2026/04/13 15:05:03.18,IMU,47.85,-10.74,-1007.81,0.09,1.40,1.13,-35.10,-6.90,0.90,28.5
2026/04/13 15:05:03.28,IMU,53.22,-19.04,-1007.32,-0.35,-1.18,-0.29,-36.60,-6.60,0.15,28.4
2026/04/13 15:05:03.38,IMU,55.66,-29.30,-1010.74,-0.34,0.15,1.34,-35.10,-7.65,-1.20,28.4
2026/04/13 15:05:03.48,IMU,59.08,-20.02,-1002.44,0.18,-0.21,0.70,-35.85,-5.10,-0.45,28.4
2026/04/13 15:05:03.58,IMU,51.27,-12.70,-1005.86,-0.20,-0.90,-1.47,-34.95,-7.50,-1.05,28.4
2026/04/13 15:05:03.68,IMU,57.13,-15.63,-1018.55,-0.52,1.72,1.47,-35.85,-6.15,-0.45,28.4
2026/04/13 15:05:03.79,IMU,46.88,-18.07,-1008.79,1.51,-0.60,0.88,-37.65,-6.60,-0.15,28.5
2026/04/13 15:05:03.89,IMU,47.36,-18.55,-1023.93,0.18,1.10,-1.34,-37.50,-6.00,1.35,28.0
2026/04/13 15:05:03.99,IMU,48.83,-19.53,-1027.34,-1.14,-0.37,-0.40,-37.50,-4.80,-0.30,28.6
2026/04/13 15:05:04.09,IMU,43.46,-15.63,-1019.53,0.05,0.50,-0.21,-35.55,-6.45,0.00,28.0
2026/04/13 15:05:04.19,IMU,40.04,-16.60,-1022.46,0.91,1.20,-1.18,-36.15,-6.15,0.15,28.4
2026/04/13 15:05:04.29,IMU,54.20,-16.60,-1016.11,1.01,0.94,1.30,-35.55,-5.55,0.00,28.4
2026/04/13 15:05:04.39,IMU,54.20,-14.65,-1016.11,-0.63,0.11,2.98,-35.40,-5.40,0.15,28.3
2026/04/13 15:05:04.49,IMU,48.34,-22.46,-1013.67,-1.60,-0.21,-2.64,-35.10,-6.90,-0.15,28.4
2026/04/13 15:05:04.59,IMU,45.90,-29.30,-1009.77,1.62,1.15,2.10,-36.90,-5.85,-0.15,28.2
2026/04/13 15:05:04.69,IMU,42.97,-15.14,-1010.25,-0.59,1.11,0.11,-36.75,-7.20,-0.30,28.5
2026/04/13 15:05:04.79,IMU,64.45,-13.67,-1012.21,0.17,0.31,-1.49,-36.30,-5.55,-1.05,28.1
2026/04/13 15:05:04.89,IMU,42.97,-1.95,-1018.07,0.56,0.79,2.43,-36.15,-6.60,-0.45,28.2
2026/04/13 15:05:04.99,IMU,61.52,-20.51,-1009.77,0.95,-0.83,-1.21,-36.15,-6.15,1.20,28.2
2026/04/13 15:05:05.09,IMU,49.80,-19.53,-1013.67,-0.65,0.88,0.00,-35.10,-6.60,-0.45,28.5
2026/04/13 15:05:05.19,IMU,51.76,-13.67,-1015.63,0.44,-0.50,-1.22,-36.75,-7.95,0.60,28.2
2026/04/13 15:05:05.29,IMU,49.32,-15.14,-1009.28,0.30,1.70,-0.43,-35.25,-6.00,0.00,28.4
2026/04/13 15:05:05.39,IMU,52.25,-25.39,-1017.58,-2.26,0.12,0.61,-36.75,-6.45,0.60,28.4
2026/04/13 15:05:05.49,IMU,51.76,-18.07,-1021.97,-0.84,2.69,-0.76,-36.15,-5.40,-1.20,28.4
2026/04/13 15:05:05.59,IMU,57.62,-9.77,-1003.91,0.85,0.67,0.44,-37.80,-6.75,-1.05,28.4
2026/04/13 15:05:05.69,IMU,47.85,-17.09,-1014.16,0.08,1.79,0.17,-36.15,-6.60,-2.25,28.6
2026/04/13 15:05:05.79,IMU,46.39,-25.88,-1021.00,-0.43,0.99,0.24,-36.00,-4.50,0.30,28.0
2026/04/13 15:05:05.89,IMU,51.76,-23.93,-1010.74,0.26,1.55,-0.27,-37.05,-6.45,-0.30,28.4
2026/04/13 15:05:05.99,IMU,45.90,-9.77,-1018.07,-0.39,-0.56,-2.02,-36.30,-6.00,0.00,28.2
2026/04/13 15:05:06.09,IMU,46.39,-26.86,-1011.72,0.02,-0.94,-0.34,-37.80,-6.00,-0.60,28.6
2026/04/13 15:05:06.19,IMU,39.06,-16.60,-1006.35,1.24,1.43,-0.19,-36.15,-7.35,-0.90,28.1
2026/04/13 15:05:06.29,IMU,41.50,-14.16,-1000.00,-2.39,0.31,-0.77,-37.50,-5.55,0.00,28.4
2026/04/13 15:05:06.39,IMU,43.95,-24.41,-1021.48,0.26,2.90,-0.02,-36.30,-7.20,-0.30,28.3
2026/04/13 15:05:06.50,IMU,50.29,-11.23,-1021.00,0.44,0.29,-0.03,-35.40,-6.90,-0.15,28.4
2026/04/13 15:05:06.60,IMU,42.48,-0.49,-1020.51,1.11,0.63,-0.02,-38.70,-8.85,5.10,28.4
2026/04/13 15:05:06.70,IMU,42.97,-21.97,-1011.72,-0.35,1.92,-2.41,-36.30,-5.25,-0.60,28.1
2026/04/13 15:05:06.80,IMU,46.88,-21.97,-1021.97,-0.22,0.52,-1.27,-36.75,-6.45,0.00,28.6
2026/04/13 15:05:06.90,IMU,39.06,-22.46,-1014.65,-1.40,0.50,-0.53,-36.30,-6.00,-2.40,28.0
2026/04/13 15:05:07.00,IMU,60.06,-21.48,-1011.23,-0.89,0.64,-0.34,-35.85,-6.60,1.20,28.2
2026/04/13 15:05:07.10,IMU,47.36,-11.23,-1004.39,-0.95,1.61,-2.24,-37.20,-7.35,-0.90,28.3
2026/04/13 15:05:07.20,IMU,41.99,-23.93,-1004.88,-0.70,-0.34,-1.49,-37.20,-6.60,-0.15,28.4
2026/04/13 15:05:07.30,IMU,52.25,-27.34,-1013.67,1.17,-0.53,-0.78,-37.05,-6.00,-1.35,28.5
2026/04/13 15:05:07.40,IMU,53.71,-11.23,-1004.39,0.86,-0.82,-2.90,-37.50,-6.00,0.30,28.4
2026/04/13 15:05:07.50,IMU,44.43,-20.02,-1010.25,-0.83,1.36,-1.94,-36.30,-7.50,0.60,28.4
2026/04/13 15:05:07.60,IMU,48.34,-10.25,-1018.55,0.64,2.33,-2.52,-36.30,-8.25,-1.05,28.2
2026/04/13 15:05:07.70,IMU,44.92,-14.16,-1020.02,0.31,-1.20,-1.16,-36.15,-5.85,-0.45,28.4
2026/04/13 15:05:07.80,IMU,55.66,-15.14,-1010.74,-1.82,1.69,1.46,-37.50,-7.20,0.00,28.1
2026/04/13 15:05:07.90,IMU,41.99,-23.93,-1010.25,0.98,-0.97,-0.24,-37.65,-6.60,1.95,28.5
2026/04/13 15:05:08.00,IMU,46.39,-20.02,-1005.37,-0.53,-0.09,-0.56,-35.55,-6.75,0.60,28.4
2026/04/13 15:05:08.11,IMU,55.66,-8.30,-1010.74,-0.95,-0.89,0.25,-36.30,-7.20,-1.05,28.4
2026/04/13 15:05:08.21,IMU,38.09,-18.55,-998.54,0.89,-0.02,-0.11,-36.75,-6.00,0.00,28.2
2026/04/13 15:05:08.31,IMU,45.90,-17.58,-1012.21,0.80,0.15,2.90,-36.90,-5.10,0.90,28.1
2026/04/13 15:05:08.41,IMU,42.97,-15.14,-1016.60,1.01,-0.14,-0.87,-35.10,-5.40,-0.15,28.2
2026/04/13 15:05:08.51,IMU,38.09,-12.21,-1015.14,-0.37,0.57,-3.24,-35.85,-6.90,-0.15,28.4
2026/04/13 15:05:08.61,IMU,44.43,-7.32,-1016.11,1.24,0.67,1.61,-35.85,-5.40,0.15,28.4
2026/04/13 15:05:08.71,IMU,27.34,-27.83,-1017.58,0.37,-0.38,-1.60,-35.85,-5.40,0.15,28.4
2026/04/13 15:05:08.81,IMU,48.83,-23.93,-1014.65,1.08,-2.63,-0.81,-37.05,-6.75,1.05,28.6
2026/04/13 15:05:08.91,IMU,43.95,-19.04,-995.12,0.18,0.22,2.89,-36.90,-5.40,-0.90,28.5
2026/04/13 15:05:09.01,IMU,54.69,-14.16,-1016.11,-0.76,0.38,-0.76,-36.60,-6.60,-1.50,28.3
2026/04/13 15:05:09.11,IMU,48.83,-12.70,-1006.84,0.76,-1.05,0.19,-37.20,-6.90,0.45,28.4
2026/04/13 15:05:09.21,IMU,42.97,-10.74,-1012.70,1.24,1.13,0.62,-36.00,-6.00,-1.05,28.3
2026/04/13 15:05:09.31,IMU,48.34,-12.21,-1010.25,0.59,0.26,-2.53,-37.05,-6.00,-0.30,28.4
2026/04/13 15:05:09.41,IMU,47.36,-22.46,-1019.04,-1.83,-1.47,-0.95,-36.30,-6.45,0.60,28.5
2026/04/13 15:05:09.51,IMU,56.64,-29.30,-1016.11,1.13,-0.68,2.68,-36.75,-6.00,0.60,28.5
2026/04/13 15:05:09.61,IMU,43.95,-11.23,-1015.63,1.04,0.64,-0.85,-35.85,-6.60,-0.45,28.4
2026/04/13 15:05:09.71,IMU,52.73,-20.02,-1009.28,0.24,-0.61,-1.97,-36.00,-6.75,0.60,28.5
2026/04/13 15:05:09.81,IMU,42.97,-23.44,-1006.35,1.11,0.04,-1.20,-37.80,-5.25,0.30,28.5
2026/04/13 15:05:09.91,IMU,45.90,-16.11,-1008.79,-1.29,-0.92,-2.05,-36.90,-6.90,-1.50,28.2
2026/04/13 15:05:10.01,IMU,53.71,-18.07,-1010.25,0.94,-0.14,-1.15,-36.90,-6.60,0.90,28.4
2026/04/13 15:05:10.11,IMU,41.02,-29.79,-1009.28,0.49,-0.20,0.50,-37.05,-5.25,0.00,28.6
2026/04/13 15:05:10.21,IMU,46.88,-9.77,-1009.28,0.32,0.50,-0.53,-36.15,-6.60,-0.90,28.3
2026/04/13 15:05:10.31,IMU,50.29,-20.02,-1015.14,0.79,0.24,-0.97,-36.15,-6.15,-1.20,28.4
2026/04/13 15:05:10.41,IMU,49.80,-22.95,-1013.67,0.02,1.20,1.44,-37.80,-6.00,-0.60,28.4
2026/04/13 15:05:10.51,IMU,55.18,-14.16,-1005.37,-0.08,-0.53,0.76,-36.60,-6.15,0.45,28.0
2026/04/13 15:05:10.61,IMU,37.60,-11.23,-1014.65,-1.13,-0.61,1.47,-36.30,-5.55,-1.05,28.4
2026/04/13 15:05:10.71,IMU,32.71,-28.32,-1005.37,-0.33,0.20,0.20,-36.15,-6.90,0.15,28.5
2026/04/13 15:05:10.82,IMU,48.83,-17.09,-1014.16,0.48,0.75,-0.23,-36.60,-6.60,-1.95,28.3
2026/04/13 15:05:10.92,IMU,45.90,-19.53,-1017.09,-0.10,-1.87,-1.93,-35.25,-6.75,-0.60,28.4
2026/04/13 15:05:11.02,IMU,44.92,-27.83,-1012.70,0.01,1.10,0.28,-36.60,-6.15,0.15,28.4
2026/04/13 15:05:11.12,IMU,44.92,-7.32,-1007.32,-0.63,1.45,-0.02,-36.15,-6.15,-0.45,28.6
2026/04/13 15:05:11.22,IMU,53.71,-13.18,-1013.18,-1.21,1.59,0.05,-36.60,-7.35,-0.90,28.4
2026/04/13 15:05:11.32,IMU,39.55,-22.95,-1018.55,1.81,1.65,2.23,-36.75,-6.75,-0.30,28.4
2026/04/13 15:05:11.42,IMU,27.83,-12.70,-1006.84,-1.04,-0.49,-0.73,-36.15,-6.60,0.45,28.3
2026/04/13 15:05:11.52,IMU,50.29,-21.97,-1014.65,-0.56,0.02,1.11,-36.30,-7.20,1.05,28.4
2026/04/13 15:05:11.62,IMU,49.80,-16.11,-1019.53,1.69,0.16,3.85,-37.65,-7.65,-0.45,28.4
2026/04/13 15:05:11.72,IMU,47.36,-21.48,-1007.81,-0.39,0.04,3.11,-37.95,-5.85,-0.90,28.3
2026/04/13 15:05:11.82,IMU,44.43,-18.07,-1009.77,1.10,-1.08,-0.24,-36.15,-5.85,-0.15,28.2
2026/04/13 15:05:11.92,IMU,49.80,-21.97,-1010.25,-0.15,1.56,0.33,-36.90,-5.85,-0.15,28.4
2026/04/13 15:05:12.02,IMU,35.64,-15.14,-1010.74,2.20,0.53,0.16,-37.20,-6.15,-0.90,28.4
2026/04/13 15:05:12.12,IMU,47.36,-15.14,-1010.74,0.70,-2.27,-1.09,-35.55,-6.00,-1.05,28.4
2026/04/13 15:05:12.22,IMU,57.13,-9.77,-1010.74,1.22,0.02,-3.42,-36.60,-5.40,-0.45,28.0
2026/04/13 15:05:12.32,IMU,44.43,-21.48,-1012.70,-0.66,2.11,0.87,-35.25,-5.55,-0.60,28.3
2026/04/13 15:05:12.42,IMU,53.22,-26.86,-1009.28,-0.86,0.82,0.79,-35.85,-6.90,-0.45,28.3
2026/04/13 15:05:12.52,IMU,55.18,-12.70,-1004.39,-0.50,0.66,-0.24,-35.40,-6.60,0.15,28.4
2026/04/13 15:05:12.62,IMU,46.39,-13.67,-992.19,-0.69,0.16,1.19,-37.20,-6.90,0.15,28.4
2026/04/13 15:05:12.72,IMU,51.76,-5.86,-1017.58,-0.31,-1.64,-1.15,-36.60,-5.85,-0.15,28.3
2026/04/13 15:05:12.82,IMU,57.62,-2.93,-1005.37,0.11,0.85,1.18,-36.60,-6.15,-0.15,28.6
2026/04/13 15:05:12.92,IMU,32.71,-23.44,-1003.91,1.79,-0.40,-0.39,-37.50,-7.20,0.00,28.3
2026/04/13 15:05:13.02,IMU,39.55,-22.95,-1010.74,0.50,-1.44,3.41,-36.30,-6.00,-0.60,28.4
2026/04/13 15:05:13.12,IMU,60.06,-15.63,-1014.16,-0.26,1.25,2.26,-36.60,-6.15,0.15,28.4
2026/04/13 15:05:13.22,IMU,38.09,-27.83,-1009.77,0.89,0.40,-2.62,-36.15,-7.35,0.15,28.4
2026/04/13 15:05:13.32,IMU,43.46,-13.67,-1014.16,1.72,0.27,2.06,-36.00,-6.00,0.30,28.4
2026/04/13 15:05:13.42,IMU,48.83,-19.04,-1007.32,-0.67,0.22,1.48,-37.65,-6.90,-1.50,28.6
2026/04/13 15:05:13.53,IMU,35.16,-20.02,-1007.81,-0.22,1.38,-1.00,-36.90,-6.15,-0.15,28.6
2026/04/13 15:05:13.63,IMU,53.71,-21.97,-1017.58,-2.11,-0.11,-2.39,-37.50,-6.00,0.60,28.5
2026/04/13 15:05:13.73,IMU,49.80,-21.97,-1017.09,-1.44,-0.10,1.52,-36.60,-5.85,-0.15,28.4
2026/04/13 15:05:13.83,IMU,46.88,-25.88,-1013.18,1.59,-0.92,0.66,-37.80,-6.75,-1.05,28.4
2026/04/13 15:05:13.93,IMU,47.85,-10.25,-1002.44,2.17,-1.04,-0.67,-37.95,-6.15,-0.45,28.3
2026/04/13 15:05:14.03,IMU,41.02,-16.60,-1013.18,0.99,-0.53,1.25,-36.30,-6.45,0.30,28.4
2026/04/13 15:05:14.13,IMU,48.83,-24.41,-1021.48,1.70,-1.01,0.40,-36.60,-6.60,0.15,28.0
2026/04/13 15:05:14.23,IMU,41.02,-20.02,-1019.04,0.15,-0.61,1.53,-35.55,-6.45,0.30,28.4
2026/04/13 15:05:14.33,IMU,39.55,-16.11,-1003.42,-0.49,1.11,2.40,-36.30,-5.55,-0.60,28.4
2026/04/13 15:05:14.43,IMU,50.29,-12.21,-1000.00,1.63,0.66,0.14,-36.30,-6.00,-0.60,28.5
2026/04/13 15:05:14.53,IMU,44.92,-19.04,-1013.18,-0.42,-1.13,-1.61,-36.75,-6.00,0.00,28.1
2026/04/13 15:05:14.63,IMU,46.88,-16.60,-1016.60,-0.04,-2.02,-0.11,-36.75,-7.95,1.05,28.3
2026/04/13 15:05:14.73,IMU,29.30,-21.97,-1008.79,1.86,-1.00,-1.52,-38.40,-6.90,0.90,28.4
2026/04/13 15:05:14.83,IMU,58.59,-21.48,-1000.00,-0.68,-0.89,2.71,-35.55,-6.00,0.00,28.4
2026/04/13 15:05:14.93,IMU,43.95,-26.37,-1010.74,-0.05,2.32,0.27,-35.40,-5.85,-0.15,28.4
2026/04/13 15:05:15.03,IMU,45.90,-12.70,-1010.74,2.01,2.06,2.82,-37.95,-6.90,-0.15,28.6
2026/04/13 15:05:15.13,IMU,54.20,-20.51,-1026.37,0.59,-1.24,0.63,-37.20,-7.35,-0.90,28.5
2026/04/13 15:05:15.23,IMU,53.71,-22.95,-1021.48,0.09,-0.62,0.66,-36.75,-5.55,0.00,28.2
2026/04/13 15:05:15.33,IMU,50.78,-16.60,-1017.58,0.34,1.26,-0.34,-36.30,-6.75,0.60,28.3
2026/04/13 15:05:15.43,IMU,56.64,-13.18,-1011.23,0.40,1.77,-0.20,-36.75,-5.55,-0.60,28.3
2026/04/13 15:05:15.53,IMU,57.62,-16.11,-1017.58,0.69,-0.54,-2.09,-36.75,-5.25,-1.05,28.4
2026/04/13 15:05:15.63,IMU,46.39,-14.65,-1016.60,0.51,-0.16,0.11,-35.40,-6.60,-0.15,28.4
2026/04/13 15:05:15.73,IMU,49.32,-13.67,-1019.53,-0.74,0.93,2.54,-39.00,-7.20,3.15,28.5
2026/04/13 15:05:15.83,IMU,50.29,-19.04,-1012.21,0.92,-0.71,-0.81,-36.00,-6.75,-0.30,28.4
2026/04/13 15:05:15.93,IMU,58.11,-26.86,-1016.60,0.02,0.82,-0.05,-35.85,-7.65,-0.15,28.6
2026/04/13 15:05:16.03,IMU,47.85,-11.72,-1031.25,0.14,-0.53,-2.07,-36.60,-6.60,-0.15,28.3
2026/04/13 15:05:16.13,IMU,48.83,-17.09,-1016.11,-0.05,-0.25,0.47,-36.60,-5.40,-0.90,28.4
2026/04/13 15:05:16.23,IMU,53.71,-19.53,-1018.55,1.37,-0.07,-0.42,-37.50,-6.45,0.60,28.4
2026/04/13 15:05:16.34,IMU,40.53,-17.09,-1010.74,0.72,0.65,-1.07,-37.20,-6.60,-0.90,28.4
2026/04/13 15:05:16.44,IMU,58.11,-21.48,-1014.16,0.26,1.27,0.38,-37.20,-5.40,-0.15,28.1
2026/04/13 15:05:16.54,IMU,40.04,-16.11,-1007.32,0.35,0.58,0.24,-36.90,-6.15,0.90,28.4
2026/04/13 15:05:16.64,IMU,54.69,-15.14,-1019.53,-0.47,-0.23,-0.21,-36.15,-6.15,-1.50,28.2
2026/04/13 15:05:16.74,IMU,46.39,-15.14,-1015.14,-0.30,-0.27,1.22,-36.00,-8.25,-0.30,28.4
2026/04/13 15:05:16.84,IMU,40.04,-17.09,-1008.30,0.34,-0.62,3.82,-36.75,-6.00,-2.10,28.6
2026/04/13 15:05:16.94,IMU,36.62,-7.81,-1024.41,-0.38,2.20,0.39,-35.85,-6.60,0.15,28.6
2026/04/13 15:05:17.04,IMU,39.06,-5.86,-1014.65,0.60,-0.08,-1.69,-34.95,-6.00,0.30,28.0
2026/04/13 15:05:17.14,IMU,49.80,-15.14,-1001.95,-0.14,0.20,-0.18,-35.25,-6.75,-1.05,28.6
2026/04/13 15:05:17.24,IMU,45.41,-13.18,-1020.02,0.15,0.15,-0.96,-37.05,-6.75,-0.30,28.3
2026/04/13 15:05:17.34,IMU,41.99,-10.25,-1014.16,0.80,0.88,-0.19,-36.30,-5.55,0.00,28.4
2026/04/13 15:05:17.44,IMU,50.29,-23.44,-1017.58,-0.34,1.86,-0.18,-36.15,-6.90,0.15,28.6
2026/04/13 15:05:17.54,IMU,52.25,-15.14,-1028.81,-0.38,0.70,1.52,-37.65,-5.40,0.15,28.5
2026/04/13 15:05:17.64,IMU,35.64,-20.02,-1008.79,-0.28,0.98,1.02,-37.05,-6.75,-1.05,28.3
2026/04/13 15:05:17.74,IMU,38.57,-18.55,-1015.14,-0.56,0.98,1.05,-37.50,-6.00,0.00,28.3
2026/04/13 15:05:17.84,IMU,45.41,-8.30,-1017.58,1.73,0.06,1.74,-36.90,-5.85,-0.15,28.4
2026/04/13 15:05:17.94,IMU,36.62,-23.93,-1033.69,0.11,-0.47,-0.89,-37.65,-6.60,-1.20,28.0
2026/04/13 15:05:18.04,IMU,51.76,-20.02,-1023.93,1.64,-0.61,1.84,-37.65,-5.85,-1.20,28.4
2026/04/13 15:05:18.14,IMU,46.88,-17.09,-1004.39,0.31,1.30,-3.21,-36.75,-7.20,0.00,28.4
2026/04/13 15:05:18.24,IMU,46.39,-12.70,-1008.79,-0.64,0.08,1.11,-36.00,-4.80,0.60,28.4
2026/04/13 15:05:18.34,IMU,35.16,-19.04,-994.63,-0.31,-0.13,-0.72,-37.50,-5.55,-0.60,28.4
2026/04/13 15:05:18.44,IMU,45.41,-21.48,-1018.07,-0.42,1.84,-0.95,-36.00,-6.00,-1.05,28.3
2026/04/13 15:05:18.54,IMU,46.88,-15.63,-1005.86,-2.08,1.21,0.26,-36.75,-4.80,0.30,28.6
2026/04/13 15:05:18.65,IMU,40.04,-13.67,-1020.51,0.99,1.50,3.75,-36.00,-6.00,-1.35,28.4
2026/04/13 15:05:18.75,IMU,49.32,-15.14,-1028.32,0.50,-1.50,-3.63,-36.60,-5.40,-0.90,28.4
2026/04/13 15:05:18.85,IMU,56.64,-29.79,-1029.30,-0.59,-0.01,0.32,-36.60,-6.15,-0.15,28.4
2026/04/13 15:05:18.95,IMU,50.29,-27.83,-1012.21,0.96,-0.45,-0.47,-37.05,-6.45,-0.30,28.4
2026/04/13 15:05:19.05,IMU,65.43,-26.86,-1006.84,-1.98,1.11,-0.27,-36.30,-6.00,0.00,28.4
2026/04/13 15:05:19.15,IMU,39.06,-21.00,-1013.18,-0.80,0.36,-2.43,-36.15,-5.85,-0.15,28.6
2026/04/13 15:05:19.25,IMU,44.92,-26.86,-1012.70,0.08,1.13,0.49,-36.60,-5.40,-0.90,28.4
2026/04/13 15:05:19.35,IMU,36.62,-21.00,-1017.58,0.47,0.66,0.86,-37.50,-6.75,-0.30,28.4
2026/04/13 15:05:19.45,IMU,32.23,-11.23,-1021.97,-1.24,-0.62,0.50,-35.85,-5.10,0.15,28.1
2026/04/13 15:05:19.55,IMU,52.73,-20.51,-1017.09,0.70,-0.26,-0.43,-35.25,-5.55,-1.05,28.4
2026/04/13 15:05:19.65,IMU,45.90,-16.60,-1016.60,0.85,-2.13,0.12,-36.90,-5.40,-0.45,28.2
2026/04/13 15:05:19.75,IMU,57.13,-10.25,-1009.28,-0.34,1.22,1.98,-37.05,-6.00,0.30,28.4
2026/04/13 15:05:19.85,IMU,51.27,-18.07,-1018.07,-0.85,1.89,-4.85,-35.85,-7.35,-0.45,28.6
2026/04/13 15:05:19.95,IMU,44.92,-27.34,-1006.35,-0.61,-0.99,-0.76,-37.80,-6.00,-0.60,28.5
2026/04/13 15:05:20.05,IMU,52.25,-21.97,-1012.70,-0.73,-0.14,3.21,-35.55,-6.00,0.00,28.2
2026/04/13 15:05:20.15,IMU,47.36,-16.11,-1015.63,-1.85,-0.08,-0.82,-36.15,-5.40,-0.90,28.4
2026/04/13 15:05:20.25,IMU,42.97,-25.88,-1009.28,-0.24,-0.89,0.25,-35.25,-7.95,0.00,28.1
2026/04/13 15:05:20.35,IMU,46.39,-17.09,-1012.21,0.79,0.57,-0.09,-37.65,-6.90,-0.45,28.4
2026/04/13 15:05:20.45,IMU,35.64,-26.37,-1005.86,0.44,0.98,-1.82,-37.05,-7.20,0.00,28.4
2026/04/13 15:05:20.55,IMU,46.88,-12.70,-1014.65,0.05,0.17,-0.54,-35.55,-6.45,-1.05,28.5
2026/04/13 15:05:20.65,IMU,43.46,-8.79,-1019.04,1.38,0.81,2.19,-37.20,-5.85,-0.15,28.4
2026/04/13 15:05:20.75,IMU,48.83,-20.51,-1010.74,0.37,2.95,-2.28,-37.20,-8.10,-1.95,28.4
2026/04/13 15:05:20.85,IMU,35.64,-23.44,-1012.70,-0.80,-0.89,-1.75,-37.65,-6.15,-0.90,28.4
2026/04/13 15:05:20.95,IMU,47.85,-29.30,-1012.70,-0.08,2.14,1.37,-36.60,-7.35,-0.45,28.2
2026/04/13 15:05:21.05,IMU,53.71,-16.11,-1021.97,0.69,-0.77,-0.98,-36.75,-4.80,0.30,28.4
2026/04/13 15:05:21.15,IMU,36.13,-22.46,-1016.60,-0.40,-1.40,-1.44,-37.95,-6.15,-0.90,28.2
2026/04/13 15:05:21.25,IMU,55.18,-15.63,-1013.18,-0.05,-0.15,-1.30,-37.05,-6.00,-0.30,28.4
2026/04/13 15:05:21.36,IMU,48.34,-12.70,-1027.83,0.69,2.04,0.15,-36.60,-6.15,-0.15,28.1
2026/04/13 15:05:21.46,IMU,52.25,-26.37,-1018.07,-0.11,0.07,-0.79,-36.90,-6.60,-0.15,28.2
2026/04/13 15:05:21.56,IMU,41.02,-21.48,-1009.77,-0.83,1.65,1.42,-36.60,-7.65,-0.15,28.2
2026/04/13 15:05:21.66,IMU,43.46,-22.95,-1011.23,0.31,-1.05,-0.72,-36.75,-6.75,-0.60,28.4
2026/04/13 15:05:21.76,IMU,47.36,-23.44,-1016.60,0.32,0.28,-1.07,-36.75,-7.50,0.30,28.5
2026/04/13 15:05:21.86,IMU,47.36,-33.69,-1023.44,1.14,0.80,1.40,-36.90,-5.10,-0.90,28.2
2026/04/13 15:05:21.96,IMU,56.15,-9.28,-1008.30,-0.92,0.34,-0.04,-37.05,-5.55,0.00,28.4
2026/04/13 15:05:22.06,IMU,45.41,-22.95,-1018.07,1.83,0.66,-1.37,-36.00,-6.75,0.00,28.4
2026/04/13 15:05:22.16,IMU,47.36,-8.79,-1019.04,-1.59,0.00,-1.39,-36.30,-5.25,-1.05,28.4
2026/04/13 15:05:22.26,IMU,40.04,-16.60,-1016.60,1.44,-1.36,0.24,-35.85,-6.15,-1.50,28.2
2026/04/13 15:05:22.36,IMU,41.99,-22.95,-1009.28,-1.00,-0.53,3.18,-37.20,-6.60,-0.45,28.3
2026/04/13 15:05:22.46,IMU,41.50,-20.51,-1002.93,0.43,2.23,1.37,-36.30,-6.45,-1.05,28.3
2026/04/13 15:05:22.56,IMU,54.20,-4.39,-1017.09,-0.56,0.02,-0.99,-36.00,-6.00,-1.05,28.3
2026/04/13 15:05:22.66,IMU,42.48,-9.28,-1010.74,-0.98,1.65,-1.57,-36.15,-3.90,0.45,28.5
2026/04/13 15:05:22.76,IMU,41.99,-14.65,-1009.77,1.66,-0.23,0.44,-36.60,-6.60,-1.20,28.4
2026/04/13 15:05:22.86,IMU,45.90,-10.25,-1008.79,-0.57,0.31,1.05,-36.60,-6.90,-0.45,28.4
2026/04/13 15:05:22.96,IMU,45.41,-20.51,-1010.74,-0.44,0.61,-0.12,-35.85,-7.35,-1.20,28.5
2026/04/13 15:05:23.06,IMU,36.13,-29.30,-1027.83,-3.41,0.93,-1.12,-36.90,-5.85,-0.90,28.2
2026/04/13 15:05:23.16,IMU,42.97,-12.70,-1015.63,0.17,1.00,-0.90,-36.30,-7.20,0.00,28.3
2026/04/13 15:05:23.26,IMU,46.88,-13.67,-1015.14,-0.15,-0.88,-1.15,-38.70,-6.60,-0.15,28.5
2026/04/13 15:05:23.36,IMU,38.09,-26.86,-1003.42,-1.62,-0.11,-1.68,-35.25,-5.55,0.30,28.6
2026/04/13 15:05:23.46,IMU,35.64,-28.81,-1016.60,0.71,2.22,-1.48,-37.20,-4.65,0.15,28.4
2026/04/13 15:05:23.56,IMU,48.34,-17.09,-1013.18,0.98,2.30,0.43,-35.85,-5.85,-0.90,28.5
2026/04/13 15:05:23.66,IMU,46.88,-15.63,-1022.95,-0.61,-0.11,-1.79,-36.30,-5.25,-1.35,28.4
2026/04/13 15:05:23.76,IMU,47.36,-30.27,-1012.21,-0.28,1.41,-0.53,-37.20,-5.40,-0.15,28.5
2026/04/13 15:05:23.86,IMU,48.83,-19.04,-1008.30,-1.29,0.13,0.02,-36.75,-7.50,-0.60,28.3
2026/04/13 15:05:24.76,IMU,56.15,-11.23,-1006.35,-0.66,-0.60,-1.08,-36.90,-6.90,-0.15,28.5
2026/04/13 15:05:24.86,IMU,50.78,-13.18,-1008.30,0.25,-0.54,0.16,-38.25,-6.45,2.85,28.2
2026/04/13 15:05:24.96,IMU,51.76,-21.48,-1011.23,-0.58,0.22,-1.79,-36.15,-5.85,-0.45,28.3
2026/04/13 15:05:25.06,IMU,53.71,-20.02,-1009.77,-0.43,2.45,-0.66,-36.90,-6.45,-1.05,28.4
2026/04/13 15:05:25.16,IMU,41.50,-24.41,-1010.25,0.32,0.21,-1.86,-35.85,-6.15,-0.45,28.1
2026/04/13 15:05:25.26,IMU,50.29,-21.48,-998.54,3.44,0.03,-0.23,-36.75,-6.45,0.30,28.3
2026/04/13 15:05:25.36,IMU,56.15,-18.07,-1021.00,0.18,1.24,-0.71,-37.50,-7.20,0.60,28.3
2026/04/13 15:05:25.46,IMU,45.41,-20.02,-1021.97,-1.10,0.11,1.53,-36.00,-6.00,-1.05,28.3
2026/04/13 15:05:25.56,IMU,45.90,-23.93,-1018.07,0.23,-1.12,-1.01,-35.85,-6.60,-0.15,28.4
2026/04/13 15:05:25.66,IMU,54.69,-15.14,-1011.23,-0.36,0.37,1.02,-37.20,-5.40,0.90,28.6
2026/04/13 15:05:25.76,IMU,41.50,-10.74,-1021.48,0.96,0.34,1.86,-36.15,-4.35,-0.90,28.3
2026/04/13 15:05:25.87,IMU,42.48,-7.32,-1024.90,0.23,0.31,-1.37,-36.15,-7.65,0.90,28.3
2026/04/13 15:05:25.97,IMU,45.41,-27.34,-1015.63,-2.02,1.82,2.02,-36.90,-6.90,-0.90,28.6
2026/04/13 15:05:26.07,IMU,39.55,-19.53,-1014.16,-1.11,0.22,-1.99,-36.15,-6.15,0.15,28.4
2026/04/13 15:05:26.17,IMU,50.78,-18.55,-999.02,-0.08,-0.85,0.76,-36.90,-6.60,-0.45,28.1
2026/04/13 15:05:26.27,IMU,40.53,-17.09,-1012.70,-0.01,1.23,1.26,-36.30,-7.50,0.00,28.4
2026/04/13 15:05:26.37,IMU,50.29,-27.83,-1027.34,1.36,0.11,1.16,-37.20,-5.85,-0.45,28.0
2026/04/13 15:05:26.47,IMU,49.80,-15.14,-1018.55,-0.41,0.39,0.00,-37.05,-6.45,-0.30,28.4
2026/04/13 15:05:26.57,IMU,29.30,-28.81,-1015.63,-0.67,1.18,-1.91,-36.00,-6.00,-0.30,28.4
2026/04/13 15:05:26.67,IMU,55.66,-22.95,-1013.18,0.65,1.57,-1.00,-36.15,-5.10,-0.90,28.4
2026/04/13 15:05:26.77,IMU,34.67,-17.58,-1010.25,-0.93,0.93,0.41,-35.85,-6.90,0.45,28.1
2026/04/13 15:05:26.87,IMU,44.43,-21.00,-1018.07,2.32,-1.15,1.33,-36.75,-7.50,-1.35,28.4
2026/04/13 15:05:26.97,IMU,45.90,-21.48,-1016.11,-0.11,0.17,-0.74,-36.15,-6.60,-0.15,28.4
2026/04/13 15:05:27.07,IMU,35.64,-20.02,-999.51,1.26,-1.05,-1.87,-34.50,-7.50,-1.35,28.0
2026/04/13 15:05:27.17,IMU,45.41,-28.32,-1015.63,1.18,1.63,0.73,-36.75,-6.00,-1.35,28.4
2026/04/13 15:05:27.27,IMU,44.92,-14.16,-1015.14,-0.37,0.21,-0.69,-36.15,-6.60,0.45,28.4
2026/04/13 15:05:27.37,IMU,50.78,-17.09,-1014.65,-1.23,1.44,1.15,-36.75,-6.45,-0.30,28.4
2026/04/13 15:05:27.47,IMU,41.99,-4.39,-1012.70,1.09,0.58,0.50,-35.85,-6.15,-0.45,28.4
2026/04/13 15:05:27.57,IMU,49.32,-2.93,-1022.46,1.69,1.70,-0.59,-36.30,-7.50,-0.30,28.4
2026/04/13 15:05:27.67,IMU,52.25,-24.41,-1014.16,-0.38,-0.17,-0.97,-36.75,-6.75,-0.30,28.5
2026/04/13 15:05:27.77,IMU,54.20,-16.11,-1017.58,-3.24,1.44,0.69,-36.00,-5.55,-1.05,28.4
2026/04/13 15:05:27.87,IMU,42.48,-13.18,-1024.41,1.23,-1.01,-0.19,-35.85,-6.15,-0.15,28.0
2026/04/13 15:05:27.98,IMU,41.02,-23.93,-1022.95,-0.74,0.11,-3.96,-36.15,-7.35,-0.90,28.4
2026/04/13 15:05:28.08,IMU,49.80,-19.53,-1014.16,0.41,-1.03,-1.27,-36.30,-6.75,0.00,28.2
2026/04/13 15:05:28.18,IMU,57.13,-20.02,-1008.30,-1.69,-0.89,-1.79,-37.50,-7.20,0.00,28.4
2026/04/13 15:05:28.28,IMU,60.06,-11.23,-1021.00,0.82,-0.92,-1.09,-37.20,-6.60,0.15,28.1
2026/04/13 15:05:28.38,IMU,40.53,-19.53,-1019.53,-0.07,-0.62,1.41,-36.75,-5.25,-1.05,28.5
2026/04/13 15:05:28.48,IMU,48.34,-35.16,-1024.41,-0.01,1.76,-2.28,-36.60,-5.40,-1.20,28.2
2026/04/13 15:05:28.58,IMU,54.69,-17.09,-1010.74,2.44,0.93,1.01,-35.85,-5.10,-0.15,28.4
2026/04/13 15:05:28.68,IMU,54.69,-31.25,-1024.41,-1.66,-0.26,-0.51,-36.00,-7.50,-1.35,28.3
2026/04/13 15:05:28.78,IMU,53.71,-14.65,-1017.09,0.94,0.50,-0.30,-36.75,-6.00,0.00,28.1
2026/04/13 15:05:28.88,IMU,44.92,-19.04,-1018.55,0.56,1.23,1.67,-36.75,-6.00,0.00,28.4
2026/04/13 15:05:28.98,IMU,44.43,-18.55,-1016.60,0.51,0.24,0.67,-36.75,-6.45,0.00,28.4
2026/04/13 15:05:29.08,IMU,52.25,-18.07,-1018.07,0.54,-1.07,-0.20,-35.85,-6.15,-0.90,28.5
2026/04/13 15:05:29.18,IMU,48.83,-32.23,-1023.44,-0.21,0.78,1.31,-36.60,-5.40,-0.45,28.4
2026/04/13 15:05:29.28,IMU,54.69,-15.14,-1007.32,0.27,2.26,0.89,-35.55,-6.75,-0.30,28.2
2026/04/13 15:05:29.38,IMU,45.90,-9.77,-1011.72,0.80,-1.42,0.05,-35.85,-6.15,-0.90,28.1
2026/04/13 15:05:29.48,IMU,49.32,-26.86,-1016.11,0.20,-1.57,1.15,-36.30,-5.25,1.35,28.3
2026/04/13 15:05:29.58,IMU,43.95,-23.93,-1022.95,0.26,1.17,-0.10,-36.90,-6.60,-0.15,28.4
2026/04/13 15:05:29.68,IMU,51.76,-3.42,-1011.72,0.92,-0.36,-0.50,-37.50,-6.75,0.00,28.4
2026/04/13 15:05:29.78,IMU,44.92,-11.23,-1006.84,0.92,-0.30,-0.33,-36.75,-6.45,-1.80,28.2
2026/04/13 15:05:29.88,IMU,53.22,-13.67,-1016.60,0.39,-1.34,1.46,-37.80,-6.45,-0.30,28.2
2026/04/13 15:05:29.98,IMU,36.62,-20.02,-1014.16,-0.34,-2.44,-0.01,-36.90,-5.85,-1.50,28.4
2026/04/13 15:05:30.08,IMU,47.36,-21.00,-1015.14,1.55,-0.30,0.02,-36.60,-6.15,-1.20,28.3
2026/04/13 15:05:30.18,IMU,41.02,-19.04,-1006.35,-0.37,1.76,-0.99,-35.85,-5.40,-0.15,28.0
2026/04/13 15:05:30.28,IMU,50.29,-18.07,-1002.44,0.08,0.43,1.73,-37.50,-7.20,-0.30,28.3
2026/04/13 15:05:30.38,IMU,42.97,-11.23,-1005.86,-0.95,0.20,0.15,-36.00,-6.75,-0.60,28.2
2026/04/13 15:05:30.48,IMU,49.80,-14.16,-1009.77,-0.01,-0.13,-0.42,-36.00,-5.55,-1.35,28.5
2026/04/13 15:05:30.58,IMU,44.92,-19.53,-1018.55,-0.40,0.78,-1.98,-36.15,-5.85,0.45,28.2
2026/04/13 15:05:30.68,IMU,47.36,-20.02,-1014.16,0.69,1.32,-2.00,-35.55,-7.50,-0.30,28.3
2026/04/13 15:05:30.79,IMU,41.99,-21.48,-1021.97,1.56,1.40,-1.34,-36.15,-6.60,-0.90,28.3
2026/04/13 15:05:30.89,IMU,52.25,-16.60,-1014.65,-0.73,0.05,1.60,-36.30,-5.55,-0.30,28.3
2026/04/13 15:05:30.99,IMU,41.02,-14.16,-1024.41,-0.69,2.55,0.77,-36.00,-6.00,-0.30,28.4
2026/04/13 15:05:31.09,IMU,47.36,-10.25,-1008.79,-0.08,-0.95,-1.34,-36.30,-7.20,0.00,28.4
2026/04/13 15:05:31.19,IMU,57.13,-19.04,-1012.21,0.69,-0.78,-1.53,-35.55,-6.45,-0.30,28.4
2026/04/13 15:05:31.29,IMU,44.43,-19.53,-1009.77,0.08,1.40,2.05,-35.55,-6.75,0.30,28.2
2026/04/13 15:05:31.39,IMU,50.78,-15.63,-1013.18,0.33,0.22,-0.37,-37.95,-5.10,-0.15,28.3
2026/04/13 15:05:31.49,IMU,41.99,-27.34,-1021.97,2.40,0.40,0.94,-37.95,-5.85,-1.20,28.3
2026/04/13 15:05:31.59,IMU,45.90,-15.63,-983.89,0.09,-0.44,1.69,-36.60,-5.40,-0.90,28.4
2026/04/13 15:05:31.69,IMU,34.67,-5.86,-1013.18,-0.56,-2.03,1.72,-38.40,-5.85,-0.15,28.4
2026/04/13 15:05:31.79,IMU,48.34,-26.86,-1013.18,-1.20,-0.55,2.33,-36.15,-6.15,0.45,28.3
2026/04/13 15:05:31.89,IMU,43.46,-22.95,-1015.63,0.12,0.85,1.62,-36.60,-5.40,-0.15,28.1
2026/04/13 15:05:31.99,IMU,45.90,-17.09,-1000.00,-1.18,1.30,0.55,-36.15,-6.15,0.45,28.3
2026/04/13 15:05:32.09,IMU,45.41,-16.11,-1010.74,0.21,1.29,-1.81,-36.60,-5.85,-0.15,28.0
2026/04/13 15:05:32.19,IMU,41.99,-18.55,-1009.77,0.68,2.09,-1.37,-37.05,-6.45,0.60,28.4
2026/04/13 15:05:32.29,IMU,52.25,-11.72,-1019.04,-1.86,1.53,2.73,-37.65,-6.90,-0.15,28.3
2026/04/13 15:05:32.39,IMU,46.39,-22.95,-1016.60,1.48,0.50,-1.64,-36.75,-6.00,-1.05,28.2
2026/04/13 15:05:32.49,IMU,41.99,-27.34,-1009.28,-0.47,0.78,-1.75,-36.60,-6.15,0.15,28.1
2026/04/13 15:05:32.59,IMU,36.62,-16.60,-1017.09,0.18,-1.46,0.45,-35.55,-6.75,-0.60,28.4
2026/04/13 15:05:32.69,IMU,44.43,-21.00,-1019.04,0.01,0.71,0.34,-36.30,-6.45,-1.80,28.0
2026/04/13 15:05:32.79,IMU,41.50,-12.21,-1021.00,-0.81,1.99,1.31,-36.00,-5.55,0.60,28.3
2026/04/13 15:05:32.89,IMU,33.20,-15.14,-992.68,0.39,-0.56,-0.02,-36.60,-7.65,-0.45,28.4
2026/04/13 15:05:32.99,IMU,55.66,-15.63,-1019.04,0.31,-0.71,-1.66,-37.80,-5.55,0.00,28.0
2026/04/13 15:05:33.09,IMU,42.97,-25.88,-1010.25,0.00,-0.07,2.44,-37.65,-6.15,-0.15,28.4
2026/04/13 15:05:33.19,IMU,47.85,-12.70,-1019.53,-1.00,2.51,1.11,-37.65,-5.85,-0.90,28.4
2026/04/13 15:05:33.29,IMU,37.11,-11.23,-1013.18,1.35,0.16,0.47,-37.05,-7.20,0.00,28.1
2026/04/13 15:05:33.40,IMU,42.97,-16.60,-1019.04,1.65,0.34,1.95,-36.00,-6.45,-0.30,28.3
2026/04/13 15:05:33.50,IMU,40.53,-12.70,-1018.07,-0.67,-0.09,-2.11,-36.90,-7.65,-0.90,28.0
2026/04/13 15:05:33.60,IMU,38.57,-9.28,-1011.23,0.09,-0.47,-1.92,-36.75,-6.00,-0.30,28.2
2026/04/13 15:05:33.70,IMU,42.97,0.00,-1023.44,-1.42,1.77,-0.34,-37.20,-6.15,0.45,28.4
2026/04/13 15:05:33.80,IMU,57.62,-17.09,-1016.60,2.17,0.82,0.13,-36.90,-6.00,0.30,28.3
2026/04/13 15:05:33.90,IMU,41.99,-24.41,-1002.93,0.04,1.29,0.47,-36.75,-5.55,-0.60,28.3
2026/04/13 15:05:34.00,IMU,41.02,-21.48,-1012.21,-1.14,-0.47,1.39,-35.55,-6.75,-1.35,28.4
2026/04/13 15:05:34.10,IMU,53.71,-21.48,-1011.23,1.08,0.73,0.56,-36.90,-6.15,0.45,28.1
2026/04/13 15:05:34.20,IMU,43.95,-23.93,-1022.46,2.06,-1.19,0.50,-36.75,-7.50,-1.35,28.4
2026/04/13 15:05:34.30,IMU,33.69,-16.60,-1021.00,0.18,2.11,2.89,-36.75,-6.45,-0.60,28.2
2026/04/13 15:05:34.40,IMU,36.13,-17.09,-1014.16,1.47,-1.20,-0.66,-37.50,-6.00,-0.60,28.4
2026/04/13 15:05:34.50,IMU,45.90,-24.41,-1019.04,-0.66,0.63,-1.15,-36.30,-7.20,0.00,28.3
2026/04/13 15:05:34.60,IMU,48.34,-6.35,-1004.88,-0.43,-1.57,2.16,-36.30,-6.00,-1.05,28.4
2026/04/13 15:05:34.70,IMU,61.04,-14.16,-1010.74,-0.23,-0.95,0.10,-36.30,-5.55,0.00,28.3
2026/04/13 15:05:34.80,IMU,37.11,-12.70,-1014.16,-1.39,0.22,0.12,-36.90,-6.90,-0.15,28.3
2026/04/13 15:05:34.90,IMU,52.25,-9.77,-1002.93,0.21,0.69,0.65,-36.60,-5.40,0.45,28.4
2026/04/13 15:05:35.01,IMU,46.88,-9.77,-1021.00,0.13,0.44,2.89,-39.00,-10.20,3.60,28.4
2026/04/13 15:05:35.11,IMU,35.16,-13.18,-1011.72,0.05,-0.74,1.27,-36.30,-6.45,0.30,28.5
2026/04/13 15:05:35.21,IMU,34.18,-14.16,-1006.84,-0.62,0.54,0.73,-35.55,-6.45,-0.60,28.2
2026/04/13 15:05:35.31,IMU,27.34,-21.97,-1026.37,-0.92,-0.74,-1.38,-36.00,-7.20,-1.80,28.1
2026/04/13 15:05:35.41,IMU,43.95,-32.71,-1015.63,0.92,-1.63,0.40,-37.50,-6.00,-1.35,28.3
2026/04/13 15:05:35.51,IMU,45.90,-33.69,-1031.25,1.95,0.21,-0.74,-37.20,-7.35,-0.45,28.2
2026/04/13 15:05:35.61,IMU,50.29,-21.00,-1007.81,-0.07,0.69,0.94,-37.80,-6.00,-1.05,28.2
2026/04/13 15:05:35.71,IMU,38.57,-13.18,-1015.63,0.54,-1.05,1.51,-36.90,-5.40,0.15,28.0
2026/04/13 15:05:35.81,IMU,47.85,-21.00,-1007.32,-0.63,1.06,-2.42,-37.95,-6.60,-0.90,28.2
2026/04/13 15:05:35.91,IMU,52.73,-26.86,-1016.60,-0.60,-1.42,0.49,-37.05,-6.45,-1.05,28.3
2026/04/13 15:05:36.01,IMU,49.32,7.81,-1064.94,1.11,1.05,0.21,-37.50,-6.00,-1.80,28.4
2026/04/13 15:05:36.11,IMU,61.52,0.49,-976.56,1.52,2.51,0.60,-38.55,-5.25,-2.40,28.3
2026/04/13 15:05:36.21,IMU,47.36,-15.63,-1020.02,1.00,1.44,1.15,-40.20,-5.85,-4.50,28.4
2026/04/13 15:05:36.31,IMU,63.96,-0.49,-1008.79,0.41,0.80,-1.15,-39.30,-6.00,-3.15,28.0
2026/04/13 15:05:36.41,IMU,57.13,-13.18,-1006.35,0.85,-0.82,-1.37,-39.30,-6.45,-5.70,28.3
2026/04/13 15:05:36.51,IMU,49.32,-32.23,-1006.84,0.41,0.82,1.72,-40.05,-6.45,-4.65,28.4
2026/04/13 15:05:36.61,IMU,52.73,-21.00,-1001.95,-0.91,2.10,0.18,-39.90,-5.85,-4.80,28.2
2026/04/13 15:05:36.71,IMU,57.62,-37.60,-1009.77,0.78,-0.66,2.83,-38.40,-6.15,-5.55,28.0
2026/04/13 15:05:36.81,IMU,39.55,-10.74,-1003.91,-1.08,0.51,1.27,-38.40,-5.85,-4.50,28.1
2026/04/13 15:05:36.91,IMU,47.85,-10.25,-1017.58,1.63,-1.47,0.40,-37.50,-5.55,-4.65,28.4
2026/04/13 15:05:37.01,IMU,63.48,-19.04,-1008.79,0.94,-0.95,1.50,-38.70,-6.90,-5.10,28.6
2026/04/13 15:05:37.11,IMU,77.64,-23.44,-1021.48,-2.27,2.14,-0.55,-37.95,-6.60,-4.50,28.3
2026/04/13 15:05:37.21,IMU,182.13,-156.25,-1173.83,2.04,6.50,-8.40,-39.15,-7.35,-5.55,28.2
2026/04/13 15:05:37.32,IMU,51.27,-19.04,-994.63,-1.67,0.37,-0.79,-38.70,-6.90,-5.10,28.0
2026/04/13 15:05:37.42,IMU,58.11,-22.46,-978.03,0.19,-1.21,1.65,-38.70,-6.90,-6.60,28.4
2026/04/13 15:05:37.52,IMU,75.68,-11.23,-1028.81,2.15,0.55,-4.66,-37.05,-7.50,-6.00,28.6
2026/04/13 15:05:37.62,IMU,64.45,-18.07,-990.72,-1.53,-2.39,1.84,-39.00,-6.75,-6.00,28.4
2026/04/13 15:05:37.72,IMU,65.43,-26.86,-996.09,0.63,2.07,1.16,-37.80,-6.45,-6.00,28.4
2026/04/13 15:05:37.82,IMU,31.74,-21.00,-1024.41,-0.44,2.35,1.84,-37.80,-7.20,-6.75,28.5
2026/04/13 15:05:37.92,IMU,66.89,-16.60,-1000.00,0.65,0.98,0.40,-39.15,-6.15,-8.10,28.2
2026/04/13 15:05:38.02,IMU,55.18,-33.69,-1020.02,0.49,0.59,-1.63,-37.80,-6.75,-8.25,28.2
2026/04/13 15:05:38.12,IMU,78.61,-14.16,-1033.69,0.03,0.28,1.30,-37.95,-7.35,-7.65,28.2
2026/04/13 15:05:38.22,IMU,86.43,-26.37,-1031.25,2.92,-0.61,-9.83,-39.45,-7.35,-5.85,28.1
2026/04/13 15:05:38.32,IMU,23.44,-34.67,-1019.53,1.50,1.27,-7.18,-39.30,-8.25,-9.30,28.4
2026/04/13 15:05:38.42,IMU,29.79,-42.48,-1018.55,4.22,1.11,-1.76,-37.65,-8.10,-7.65,28.4
2026/04/13 15:05:38.52,IMU,26.86,-62.99,-1067.87,7.36,3.91,-4.93,-38.40,-7.35,-9.15,28.2
2026/04/13 15:05:38.62,IMU,114.75,-37.60,-1017.09,6.31,0.37,-6.74,-39.45,-8.10,-9.90,28.1
2026/04/13 15:05:38.72,IMU,46.39,-52.25,-1041.99,1.82,2.67,-13.17,-40.80,-8.25,-9.60,28.4
2026/04/13 15:05:38.82,IMU,107.91,-69.34,-964.36,-2.52,10.31,2.73,-39.00,-9.45,-9.60,28.2
2026/04/13 15:05:38.92,IMU,90.82,-61.04,-1002.93,-1.44,3.02,-11.60,-41.10,-9.45,-9.00,28.2
2026/04/13 15:05:39.02,IMU,113.77,-77.15,-984.38,3.10,0.32,-8.44,-39.90,-10.80,-9.15,28.2
2026/04/13 15:05:39.12,IMU,92.77,66.89,-1349.61,-46.88,-4.49,6.18,-39.60,-9.00,-10.35,28.4
2026/04/13 15:05:39.22,IMU,161.13,-5.86,-993.65,5.89,12.08,0.17,-39.15,-5.40,-20.25,28.4
2026/04/13 15:05:39.32,IMU,118.16,15.63,-1020.51,0.94,-9.95,1.43,-38.25,-5.55,-20.85,28.6
2026/04/13 15:05:39.42,IMU,106.93,21.00,-987.79,7.94,10.24,7.72,-36.60,-7.65,-21.75,28.0
2026/04/13 15:05:39.52,IMU,134.77,-20.51,-989.75,-3.34,10.42,7.08,-36.30,-7.95,-21.15,28.4
2026/04/13 15:05:39.62,IMU,136.23,11.72,-977.05,-9.53,0.50,0.35,-37.05,-7.95,-22.65,28.3
2026/04/13 15:05:39.72,IMU,129.39,15.14,-946.29,-10.93,-8.04,-0.28,-37.05,-6.45,-21.90,28.4
2026/04/13 15:05:39.82,IMU,139.16,34.18,-982.42,-11.54,-3.85,1.10,-36.00,-5.55,-20.55,28.6
2026/04/13 15:05:39.92,IMU,132.32,-3.42,-1197.27,-25.01,27.98,10.02,-35.55,-4.50,-22.35,28.4
2026/04/13 15:05:40.03,IMU,132.32,77.64,-1025.39,7.52,0.39,5.40,-34.95,-3.75,-23.10,28.4
2026/04/13 15:05:40.13,IMU,80.08,52.73,-1015.63,-14.48,-6.63,-0.61,-34.35,-3.60,-22.05,28.2
2026/04/13 15:05:40.23,IMU,122.07,114.26,-992.19,-6.60,0.85,5.47,-35.40,-3.15,-22.05,28.4
2026/04/13 15:05:40.33,IMU,105.96,104.49,-1031.25,-16.50,-3.75,-2.35,-33.60,-0.90,-22.50,28.4
2026/04/13 15:05:40.43,IMU,148.44,175.78,-1020.51,-21.41,-1.26,-4.90,-33.75,1.05,-22.65,28.4
2026/04/13 15:05:40.53,IMU,123.05,203.61,-984.38,-21.88,3.02,-1.60,-33.00,1.50,-23.10,28.1
2026/04/13 15:05:40.63,IMU,84.96,215.33,-994.14,-9.31,1.57,3.47,-33.45,4.50,-23.40,28.5
2026/04/13 15:05:40.73,IMU,135.25,246.58,-985.84,-18.01,-3.81,-1.50,-33.90,4.35,-21.75,28.4
2026/04/13 15:05:40.83,IMU,79.59,271.48,-938.96,-19.90,2.15,-9.75,-33.75,5.55,-22.35,28.5
2026/04/13 15:05:40.93,IMU,94.73,299.80,-966.80,-16.76,7.35,-6.07,-34.50,9.00,-21.60,28.2
2026/04/13 15:05:41.03,IMU,109.86,356.45,-937.99,-29.03,-9.69,-12.02,-32.10,11.10,-22.50,28.4
2026/04/13 15:05:41.13,IMU,8.30,384.77,-859.86,-24.69,-27.85,-15.67,-34.95,12.15,-21.90,28.6
2026/04/13 15:05:41.23,IMU,-3.91,446.29,-927.25,-32.61,-43.33,-36.40,-29.25,15.75,-21.45,28.4
2026/04/13 15:05:41.33,IMU,-54.20,497.07,-924.80,-13.94,-14.53,-20.17,-26.25,18.30,-20.25,28.6
2026/04/13 15:05:41.43,IMU,-125.98,468.26,-798.34,-5.40,-7.11,-19.18,-25.65,18.15,-21.90,28.6
2026/04/13 15:05:41.53,IMU,-96.68,500.49,-842.77,-6.66,-13.83,-22.60,-25.50,19.05,-18.45,28.2
2026/04/13 15:05:41.63,IMU,-155.76,506.35,-868.65,-4.89,-16.20,-30.00,-21.75,20.25,-20.25,28.6
2026/04/13 15:05:41.73,IMU,-182.62,502.93,-903.81,-3.17,-7.95,-17.09,-19.50,20.85,-19.05,28.2
2026/04/13 15:05:41.83,IMU,-207.03,510.74,-862.79,-11.37,1.04,-5.32,-20.85,21.60,-20.10,28.3
2026/04/13 15:05:41.93,IMU,-251.95,506.84,-831.54,2.74,3.18,3.13,-18.75,20.10,-19.05,28.4
2026/04/13 15:05:42.03,IMU,-205.57,491.70,-847.66,1.37,2.31,-0.40,-19.95,21.45,-19.95,28.6
2026/04/13 15:05:42.13,IMU,-205.08,496.09,-835.94,-5.47,-0.93,-1.87,-21.60,20.85,-16.95,28.3
2026/04/13 15:05:42.23,IMU,-278.81,493.65,-792.97,-4.15,-10.34,-6.38,-20.40,22.95,-18.45,28.0
2026/04/13 15:05:42.33,IMU,-298.83,509.77,-874.51,-6.11,-24.76,-42.89,-18.15,22.50,-19.95,28.5
2026/04/13 15:05:42.43,IMU,-345.21,485.35,-753.42,-6.40,-40.22,-64.27,-13.35,21.45,-17.85,28.1
2026/04/13 15:05:42.53,IMU,-479.98,432.62,-728.52,-17.07,-82.14,-97.70,-6.60,20.10,-17.25,28.3
2026/04/13 15:05:42.63,IMU,-674.80,405.27,-641.60,-20.57,-155.72,-114.22,3.60,15.90,-13.65,28.6
2026/04/13 15:05:42.73,IMU,-965.82,270.02,-444.34,-8.68,-84.43,-56.75,13.35,12.30,-5.10,28.3
2026/04/13 15:05:42.84,IMU,-899.90,208.01,-424.80,-18.76,-125.89,-32.02,19.05,11.70,0.00,28.7
2026/04/13 15:05:42.94,IMU,-1005.37,164.55,-100.59,-1.05,-75.40,-22.38,24.45,10.35,7.65,28.4
2026/04/13 15:05:43.04,IMU,-1038.09,128.42,24.90,-10.21,-110.64,-17.53,27.75,12.30,15.30,28.0
2026/04/13 15:05:43.14,IMU,-975.59,131.84,263.67,-29.90,-96.17,-3.04,27.90,12.15,26.70,28.4
2026/04/13 15:05:43.24,IMU,-922.85,94.73,471.19,-90.73,-136.49,6.36,28.50,17.55,37.35,28.6
2026/04/13 15:05:43.34,IMU,-903.81,44.92,508.30,-49.74,-30.46,14.56,25.35,19.65,46.80,28.6
2026/04/13 15:05:43.44,IMU,-791.02,-16.60,642.58,-60.96,-47.32,-11.63,25.35,18.15,48.30,28.3
2026/04/13 15:05:43.54,IMU,-865.23,-102.05,714.84,-51.49,-49.31,-16.23,23.85,18.60,51.15,28.5
2026/04/13 15:05:43.64,IMU,-632.32,-108.89,266.60,21.02,84.35,30.31,21.15,15.30,52.50,28.2
2026/04/13 15:05:43.74,IMU,-1173.34,-62.99,638.18,0.66,111.15,25.11,27.15,17.40,38.55,28.4
2026/04/13 15:05:43.84,IMU,-1049.32,-55.18,352.54,-23.26,48.38,4.01,28.20,15.90,30.90,28.4
2026/04/13 15:05:43.94,IMU,-937.50,-27.34,271.48,-30.46,72.36,19.29,26.25,17.25,27.60,28.6
2026/04/13 15:05:44.04,IMU,-948.24,21.48,-104.00,-18.23,92.37,18.58,24.60,18.60,19.35,28.5
2026/04/13 15:05:44.15,IMU,-762.21,15.14,-6.84,-23.02,23.63,-50.63,22.20,18.75,13.05,28.4
2026/04/13 15:05:44.25,IMU,-1080.08,-49.32,-215.82,-40.25,76.35,7.64,18.90,22.95,7.35,28.3
2026/04/13 15:05:44.35,IMU,-1227.54,-67.87,-404.79,-23.71,133.18,38.64,11.85,27.00,-5.10,28.4
2026/04/13 15:05:44.45,IMU,-856.45,79.10,-436.04,16.96,107.79,23.30,2.85,29.55,-12.90,28.4
2026/04/13 15:05:44.55,IMU,-832.52,35.64,-579.59,-26.99,-9.90,-2.64,-1.20,32.70,-16.05,28.4
2026/04/13 15:05:44.65,IMU,-973.14,100.10,-212.40,-18.54,-151.19,-11.46,1.35,30.30,-12.90,28.4
2026/04/13 15:05:44.75,IMU,-533.20,217.29,-401.37,6.78,-77.95,-27.49,15.15,28.95,2.70,28.4
2026/04/13 15:05:44.85,IMU,-1067.38,123.05,-284.67,15.67,19.96,25.80,17.70,28.95,2.25,28.6
2026/04/13 15:05:44.95,IMU,-1021.00,213.38,-383.79,20.62,68.92,81.98,15.75,32.55,-0.60,28.6
2026/04/13 15:05:45.05,IMU,-715.33,365.23,-312.50,-1.74,-2.56,51.37,12.45,34.50,-4.20,28.3
2026/04/13 15:05:45.15,IMU,-864.26,373.05,-402.83,16.97,28.26,55.79,10.20,37.95,-3.15,28.6
2026/04/13 15:05:45.25,IMU,-852.05,455.57,-561.52,19.02,39.40,32.47,4.65,40.20,-6.45,28.4
2026/04/13 15:05:45.35,IMU,-416.50,606.93,-621.58,27.71,48.90,150.50,-2.25,40.80,-8.70,28.5
2026/04/13 15:05:45.45,IMU,-448.24,709.96,-460.94,63.07,68.99,175.56,-15.60,41.10,-15.30,28.2
2026/04/13 15:05:45.55,IMU,-305.18,651.86,-706.54,53.80,50.01,124.04,-30.45,35.55,-17.55,28.4
2026/04/13 15:05:45.65,IMU,-166.99,530.76,-824.71,12.89,79.76,137.74,-35.85,30.15,-19.95,28.3
2026/04/13 15:05:45.76,IMU,265.63,591.31,-770.02,-22.93,41.54,136.10,-43.50,25.50,-16.65,28.4
2026/04/13 15:05:45.86,IMU,502.44,575.68,-784.67,-23.73,51.35,68.60,-49.05,23.70,-17.40,28.6
2026/04/13 15:05:45.96,IMU,464.36,460.94,-753.91,1.94,97.70,131.79,-55.50,21.15,-11.85,28.6
2026/04/13 15:05:46.06,IMU,449.22,234.86,-453.13,1.76,140.12,156.10,-62.70,10.80,-9.15,28.7
2026/04/13 15:05:46.16,IMU,1024.90,214.84,-462.89,-63.14,89.40,-0.11,-66.75,7.65,-2.25,28.5
2026/04/13 15:05:46.26,IMU,885.25,219.73,-138.67,-52.26,93.02,14.13,-71.70,9.45,4.65,28.3
2026/04/13 15:05:46.36,IMU,875.98,126.46,62.99,-72.46,91.95,-39.71,-73.65,12.30,13.50,28.5
2026/04/13 15:05:46.46,IMU,820.31,275.88,195.80,-82.42,83.13,-85.24,-74.55,16.95,21.60,28.5
2026/04/13 15:05:46.56,IMU,666.02,445.31,426.76,-95.98,88.59,-147.85,-72.00,28.05,32.70,28.6
2026/04/13 15:05:46.66,IMU,593.26,532.23,453.13,-16.55,72.19,-121.70,-63.60,36.45,41.10,28.6
2026/04/13 15:05:46.76,IMU,459.96,698.24,453.61,-10.84,51.15,-153.23,-51.45,48.60,50.10,28.3
2026/04/13 15:05:46.86,IMU,143.07,827.64,648.93,3.63,29.34,-152.81,-40.65,52.95,54.90,28.4
2026/04/13 15:05:46.96,IMU,-176.76,714.36,588.38,5.90,25.47,-106.58,-28.65,55.05,57.75,28.2
2026/04/13 15:05:47.06,IMU,16.11,729.00,635.25,-2.10,29.47,-53.06,-17.55,53.10,60.90,28.6
2026/04/13 15:05:47.16,IMU,-144.53,808.11,717.77,-2.02,25.51,-64.33,-11.10,51.75,61.50,28.0
2026/04/13 15:05:47.26,IMU,-432.13,695.80,593.26,-7.97,37.73,-89.96,-4.65,52.65,62.70,28.4
2026/04/13 15:05:47.36,IMU,-589.84,583.50,532.71,1.10,35.92,-82.11,1.95,48.75,61.50,28.6
2026/04/13 15:05:47.46,IMU,-435.55,594.73,455.08,30.31,10.24,-2.09,5.25,46.50,60.75,28.6
2026/04/13 15:05:47.56,IMU,-506.35,639.16,471.19,89.36,0.54,48.10,3.45,52.20,56.10,28.4
2026/04/13 15:05:47.66,IMU,-798.83,771.97,401.86,43.33,17.27,-73.07,4.35,57.60,51.15,28.4
2026/04/13 15:05:47.76,IMU,-720.21,683.59,331.54,-5.22,21.21,-60.40,10.05,54.45,51.75,28.4
2026/04/13 15:05:47.86,IMU,-801.76,569.82,185.55,16.53,33.69,-89.66,15.45,50.40,50.40,28.6
2026/04/13 15:05:47.96,IMU,-735.35,569.82,93.75,70.98,62.27,44.10,18.45,48.75,45.60,28.4
2026/04/13 15:05:48.06,IMU,-844.73,517.09,-94.24,119.00,36.27,28.98,13.50,56.85,32.40,28.6
2026/04/13 15:05:48.16,IMU,-990.72,594.73,-213.87,97.27,30.53,-52.20,10.80,55.95,19.20,28.4
2026/04/13 15:05:48.26,IMU,-688.48,481.45,-322.75,95.56,43.66,19.87,11.10,49.50,9.90,28.6
2026/04/13 15:05:48.36,IMU,-619.63,477.54,-545.90,81.38,66.63,87.00,4.65,46.95,1.35,28.5
2026/04/13 15:05:48.47,IMU,-689.94,682.62,-437.50,86.98,59.79,137.08,-12.00,41.70,-9.30,28.4
2026/04/13 15:05:48.57,IMU,-294.43,633.79,-822.27,105.87,58.92,149.93,-27.00,36.15,-16.05,28.6
2026/04/13 15:05:48.67,IMU,-923.34,1244.14,1130.37,17.90,90.89,250.13,-38.25,24.30,-19.35,28.4
2026/04/13 15:05:48.77,IMU,28.32,368.16,-941.89,59.38,31.47,78.73,-47.70,12.15,-19.80,28.4
2026/04/13 15:05:48.87,IMU,250.49,331.05,-1022.46,65.44,17.09,169.66,-49.05,3.90,-17.85,28.2
2026/04/13 15:05:48.97,IMU,-53.71,94.73,-912.60,-4.65,29.46,101.42,-47.40,-3.75,-18.75,28.5
2026/04/13 15:05:49.07,IMU,362.79,64.94,-888.18,-54.24,61.17,63.95,-48.00,-2.40,-19.20,28.2
2026/04/13 15:05:49.17,IMU,352.54,104.49,-836.91,-55.60,86.18,32.73,-51.00,1.05,-18.00,28.6
2026/04/13 15:05:49.27,IMU,622.56,269.53,-1102.54,-33.67,91.47,81.35,-56.10,2.70,-15.30,28.5
2026/04/13 15:05:49.37,IMU,328.61,72.27,-671.88,-73.05,74.58,79.89,-60.15,3.60,-13.50,28.4
2026/04/13 15:05:49.47,IMU,742.68,66.41,-512.21,-35.83,61.46,59.36,-61.95,3.15,-10.50,28.2
2026/04/13 15:05:49.57,IMU,1140.63,278.32,-613.77,-3.44,55.69,23.79,-62.85,4.05,-8.55,28.4
2026/04/13 15:05:49.67,IMU,815.43,81.54,-549.32,1.68,59.16,-6.30,-66.75,3.90,-3.30,28.6
2026/04/13 15:05:49.77,IMU,763.67,166.02,-501.95,52.57,-15.21,-46.63,-68.55,1.95,-3.00,28.6
2026/04/13 15:05:49.87,IMU,784.18,97.66,-401.86,17.98,9.03,-6.84,-68.70,1.50,-1.05,28.5
2026/04/13 15:05:49.97,IMU,914.06,132.81,-347.17,6.36,13.33,-13.92,-69.30,1.65,1.20,28.4
2026/04/13 15:05:50.07,IMU,889.65,98.63,-328.61,15.09,4.85,0.31,-70.35,1.65,0.45,28.6
2026/04/13 15:05:50.17,IMU,955.08,92.29,-297.85,4.19,11.27,-16.00,-71.10,0.90,0.90,28.4
2026/04/13 15:05:50.27,IMU,873.05,141.60,-270.02,8.76,1.16,7.53,-72.30,0.45,4.05,28.6
2026/04/13 15:05:50.37,IMU,933.59,76.17,-308.11,18.45,-9.85,52.63,-69.45,0.00,0.00,28.4
2026/04/13 15:05:50.47,IMU,952.15,-17.58,-324.22,-2.77,-7.13,13.00,-67.80,-3.60,0.15,28.4
2026/04/13 15:05:50.57,IMU,968.26,7.81,-375.49,17.67,1.02,9.02,-68.40,-4.50,0.60,28.2
2026/04/13 15:05:50.67,IMU,820.31,-48.83,-305.18,-1.35,-8.11,-2.80,-68.40,-5.25,0.60,28.4
2026/04/13 15:05:50.77,IMU,891.60,-12.21,-408.69,12.56,-8.46,4.01,-69.15,-6.45,-0.30,28.4
2026/04/13 15:05:50.87,IMU,838.87,-41.02,-422.85,-8.98,-8.94,-18.70,-68.85,-4.35,-2.70,28.4
2026/04/13 15:05:50.97,IMU,963.87,100.59,-388.18,4.53,-3.37,-23.02,-68.25,-3.60,-3.30,28.5
2026/04/13 15:05:51.07,IMU,985.35,94.24,-401.86,-5.43,-20.11,-30.79,-67.80,-2.40,-3.00,28.6
2026/04/13 15:05:51.18,IMU,862.30,51.27,-490.23,-0.14,2.73,-0.14,-66.90,0.30,-3.15,28.4
2026/04/13 15:05:51.28,IMU,912.11,72.75,-470.70,7.34,-0.03,-3.19,-71.70,-1.80,2.10,28.6
2026/04/13 15:05:51.38,IMU,776.37,-115.23,-588.87,36.58,0.13,1.77,-67.05,-0.90,-4.50,28.6
2026/04/13 15:05:51.48,IMU,877.93,186.52,-639.16,78.64,-140.86,20.43,-65.25,-1.95,-5.85,28.6
2026/04/13 15:05:51.58,IMU,687.01,-56.15,-330.57,-46.10,88.38,-19.44,-57.45,-4.35,-11.25,28.6
2026/04/13 15:05:51.68,IMU,721.68,65.43,-770.02,-2.08,6.30,-24.81,-61.95,-2.40,-9.15,28.6
2026/04/13 15:05:51.78,IMU,911.62,93.75,-680.66,-6.71,1.80,-11.08,-61.35,-0.30,-11.85,28.6
2026/04/13 15:05:51.88,IMU,694.82,162.60,-473.14,-13.12,0.55,-13.08,-63.00,1.65,-9.15,28.6
2026/04/13 15:05:51.98,IMU,792.97,133.79,-658.69,-17.18,-21.56,-19.54,-61.80,3.30,-9.60,28.6
2026/04/13 15:05:52.08,IMU,810.55,204.10,-638.18,-17.56,-27.36,-29.80,-61.35,5.25,-11.10,28.6
2026/04/13 15:05:52.18,IMU,687.01,194.34,-546.88,2.95,-9.26,0.46,-61.20,5.85,-9.90,28.5
2026/04/13 15:05:52.28,IMU,627.44,238.77,-624.51,-12.98,-22.78,-17.76,-62.85,4.50,-7.20,28.4
2026/04/13 15:05:52.38,IMU,731.45,310.55,-664.55,-20.85,-28.89,-42.81,-58.65,10.35,-13.50,28.7
2026/04/13 15:05:52.48,IMU,577.64,333.98,-467.77,-4.78,9.69,-38.43,-57.00,12.90,-13.35,28.6
2026/04/13 15:05:52.58,IMU,611.82,448.24,-709.47,-13.95,25.53,-38.41,-57.00,16.20,-13.35,28.3
2026/04/13 15:05:52.68,IMU,551.76,475.10,-579.59,-14.67,-11.14,-45.77,-57.00,20.10,-12.60,28.6
2026/04/13 15:05:52.78,IMU,542.48,552.73,-664.55,-2.58,3.81,-26.69,-56.40,23.70,-10.95,28.6
2026/04/13 15:05:52.88,IMU,501.46,634.77,-580.57,-34.71,-40.23,-94.25,-55.35,25.50,-10.95,28.7
2026/04/13 15:05:52.99,IMU,337.89,675.78,-588.87,-54.61,-54.11,-107.79,-47.70,33.00,-10.05,28.7
2026/04/13 15:05:53.09,IMU,199.22,828.61,-577.64,-25.08,-21.92,-89.15,-41.85,38.70,-7.50,28.7
2026/04/13 15:05:53.19,IMU,-27.83,839.36,-526.86,-4.41,-64.54,-115.09,-32.10,41.55,-6.30,28.4
2026/04/13 15:05:53.29,IMU,-201.17,810.55,-564.45,-14.85,-15.45,-63.00,-21.75,44.85,-7.35,28.6
2026/04/13 15:05:53.39,IMU,-330.57,815.92,-516.60,6.73,-12.56,-33.08,-20.55,45.90,-4.95,28.4
2026/04/13 15:05:53.49,IMU,-428.22,766.11,-517.58,-23.74,-53.89,-77.06,-14.40,45.30,-4.50,28.5
2026/04/13 15:05:53.59,IMU,-531.25,742.68,-443.36,-30.69,-55.80,-103.34,-4.95,44.85,1.50,28.5
2026/04/13 15:05:53.69,IMU,-693.36,668.46,-320.31,-27.73,-34.38,-58.47,2.85,43.95,5.70,28.4
2026/04/13 15:05:53.79,IMU,-852.54,567.87,-251.46,-3.05,-32.71,-57.10,7.50,42.30,8.10,28.6
2026/04/13 15:05:53.89,IMU,-929.69,538.09,-211.43,9.78,-30.01,-56.84,11.55,41.10,9.45,28.6
2026/04/13 15:05:53.99,IMU,-875.98,484.86,-159.18,-32.16,-14.40,-22.74,15.90,37.65,10.50,28.5
2026/04/13 15:05:54.09,IMU,-958.50,429.20,-192.87,-45.40,18.79,16.25,16.05,39.45,13.95,28.4
2026/04/13 15:05:54.19,IMU,-875.98,434.57,-183.11,-90.99,-10.40,-20.94,17.25,42.45,18.00,28.7
2026/04/13 15:05:54.29,IMU,-937.50,500.00,-56.64,-126.59,17.76,3.91,18.15,43.35,22.05,28.3
2026/04/13 15:05:54.39,IMU,-955.08,422.85,84.96,-132.36,4.10,7.03,19.05,45.90,30.90,28.6
2026/04/13 15:05:54.49,IMU,-755.37,630.86,162.11,-67.66,-20.56,93.51,16.80,48.15,36.00,28.6
2026/04/13 15:05:54.59,IMU,-829.10,680.18,305.18,-55.95,-25.80,200.83,5.70,59.40,42.00,28.5
2026/04/13 15:05:54.69,IMU,-646.00,816.89,413.57,-105.55,-14.64,139.05,-9.90,62.25,48.00,28.6
2026/04/13 15:05:54.79,IMU,-197.75,702.15,568.85,-96.68,-33.03,47.31,-17.25,62.55,56.55,28.6
2026/04/13 15:05:54.89,IMU,-174.32,714.36,597.17,12.49,-33.61,48.69,-22.50,60.45,59.70,28.6
2026/04/13 15:05:54.99,IMU,-133.30,789.55,612.30,31.18,-15.55,59.47,-28.65,61.50,55.80,28.7
2026/04/13 15:05:55.09,IMU,-60.55,753.42,597.17,-29.17,-32.49,81.14,-34.95,57.30,56.40,28.7
2026/04/13 15:05:55.19,IMU,148.44,681.15,556.15,39.98,-48.27,59.27,-41.55,55.80,53.70,28.6
2026/04/13 15:05:55.29,IMU,259.28,773.93,542.48,61.66,-40.40,36.82,-48.00,54.00,47.40,28.6
2026/04/13 15:05:55.39,IMU,341.80,791.50,388.18,34.20,-26.50,34.92,-52.05,52.95,41.55,28.7
2026/04/13 15:05:55.49,IMU,527.83,898.44,265.14,45.12,-27.20,-3.71,-53.85,51.75,35.85,28.6
2026/04/13 15:05:55.59,IMU,395.02,850.59,262.70,21.83,-8.25,27.89,-53.70,50.40,32.40,28.6
2026/04/13 15:05:55.70,IMU,480.96,887.21,190.92,17.13,-14.61,26.20,-57.15,50.55,30.75,28.5
2026/04/13 15:05:55.80,IMU,589.84,884.28,144.04,39.63,-9.48,51.40,-59.85,47.40,27.30,28.6
2026/04/13 15:05:55.90,IMU,608.40,960.94,496.58,17.09,-4.82,60.47,-62.85,43.65,23.70,28.6
2026/04/13 15:05:56.00,IMU,691.41,638.18,124.02,17.82,-6.75,56.66,-66.75,37.65,21.75,28.7
2026/04/13 15:05:56.10,IMU,737.79,624.51,120.61,25.84,-9.41,28.63,-68.70,33.00,19.35,28.6
2026/04/13 15:05:56.20,IMU,719.24,544.92,37.60,36.46,-17.76,33.48,-70.35,30.15,17.40,28.6
2026/04/13 15:05:56.30,IMU,746.58,496.09,-30.76,61.40,-43.54,-6.90,-69.15,27.60,13.35,28.6
2026/04/13 15:05:56.40,IMU,731.93,570.80,-235.84,79.43,-50.33,2.82,-69.45,27.30,9.00,28.7
2026/04/13 15:05:56.50,IMU,770.02,477.54,-319.34,39.95,-32.20,8.31,-67.20,23.10,2.40,28.7
2026/04/13 15:05:56.60,IMU,740.72,433.11,-365.23,42.35,-24.35,-4.52,-67.50,21.00,1.20,28.6
2026/04/13 15:05:56.70,IMU,789.06,471.19,-486.33,41.44,-23.51,6.53,-67.20,19.65,-2.40,28.5
2026/04/13 15:05:56.80,IMU,807.62,422.36,-505.37,37.34,-11.47,-2.36,-65.85,15.45,-5.70,28.6
2026/04/13 15:05:56.90,IMU,673.34,381.84,-587.40,25.34,-26.61,-21.66,-65.10,16.20,-5.70,28.6
2026/04/13 15:05:57.00,IMU,546.88,382.81,-621.09,33.24,-19.31,-51.93,-63.00,15.75,-8.40,28.6
2026/04/13 15:05:57.10,IMU,590.82,434.57,-719.73,55.39,-27.50,-43.82,-61.50,16.80,-12.45,28.6
2026/04/13 15:05:57.20,IMU,534.18,423.83,-749.51,65.09,-34.93,-45.11,-57.45,16.80,-13.80,28.7
2026/04/13 15:05:57.30,IMU,375.00,349.61,-744.14,41.18,-18.02,-36.34,-56.55,13.95,-15.75,28.7
2026/04/13 15:05:57.40,IMU,265.63,316.89,-829.10,21.78,-16.11,-19.63,-55.05,12.90,-18.00,28.5
2026/04/13 15:05:57.50,IMU,324.22,381.35,-964.84,12.68,-48.91,-50.08,-52.20,13.95,-19.35,28.6
2026/04/13 15:05:57.60,IMU,100.10,293.46,-955.08,12.55,-74.89,-74.48,-46.05,15.75,-22.05,28.5
2026/04/13 15:05:57.70,IMU,11.72,288.09,-867.19,16.47,-59.77,-58.92,-41.55,14.70,-23.40,28.6
2026/04/13 15:05:57.80,IMU,-151.86,360.35,-951.17,25.92,-67.64,-61.99,-35.10,16.50,-24.30,28.6
2026/04/13 15:05:57.90,IMU,-315.43,237.79,-923.34,3.35,-55.74,-36.14,-27.15,15.15,-24.90,28.6
2026/04/13 15:05:58.00,IMU,-400.39,273.44,-915.53,-19.91,-87.51,-47.09,-21.60,13.65,-25.95,28.7
2026/04/13 15:05:58.10,IMU,-595.21,251.46,-820.31,-22.72,-137.87,-70.05,-10.80,17.25,-21.75,28.5
2026/04/13 15:05:58.20,IMU,-864.75,244.14,-626.46,-52.48,-120.91,-50.06,1.65,17.25,-15.30,28.5
2026/04/13 15:05:58.31,IMU,-891.60,240.72,-437.50,-40.82,-95.96,-16.27,10.35,20.55,-6.60,28.7
2026/04/13 15:05:58.41,IMU,-977.54,241.70,-339.36,-46.09,-64.40,-35.17,16.65,22.20,0.45,28.7
2026/04/13 15:05:58.51,IMU,-942.87,243.65,-210.45,-61.73,-46.19,-0.63,21.60,21.90,9.00,28.6
2026/04/13 15:05:58.61,IMU,-921.39,91.31,-36.62,-71.08,3.49,70.15,23.55,26.85,15.45,28.6
2026/04/13 15:05:58.71,IMU,-871.58,251.46,21.00,-52.59,-59.34,18.03,22.20,35.10,22.05,28.6
2026/04/13 15:05:58.81,IMU,-988.77,428.71,-68.36,-52.24,-54.94,15.02,24.00,39.15,28.95,28.6
2026/04/13 15:05:58.91,IMU,-919.43,440.92,88.87,-14.60,9.98,43.62,21.60,40.50,33.15,28.7
2026/04/13 15:05:59.01,IMU,-928.22,534.18,95.21,-21.47,21.85,65.11,18.90,44.10,32.25,28.7
2026/04/13 15:05:59.11,IMU,-856.45,529.79,143.07,-54.59,5.14,61.16,15.45,47.70,33.45,28.7
2026/04/13 15:05:59.21,IMU,-723.63,626.95,139.65,-10.15,12.94,36.08,11.10,51.75,36.15,28.7
2026/04/13 15:05:59.31,IMU,-758.79,668.46,126.95,25.48,21.57,46.05,8.70,53.40,32.70,28.7
2026/04/13 15:05:59.41,IMU,-660.16,734.86,122.07,-14.47,9.29,53.66,3.00,54.45,33.30,28.6
2026/04/13 15:05:59.51,IMU,-604.49,714.84,140.14,-13.52,7.36,45.55,1.20,56.25,31.50,28.7
2026/04/13 15:05:59.61,IMU,-534.67,850.10,93.26,4.31,1.19,24.26,-2.10,57.60,31.65,28.7
2026/04/13 15:05:59.71,IMU,-510.25,829.10,103.03,-4.16,3.50,35.88,-4.50,59.40,30.00,28.8
2026/04/13 15:05:59.81,IMU,-425.78,893.55,82.03,17.76,11.02,34.48,-9.15,60.30,30.90,28.8
2026/04/13 15:05:59.91,IMU,-381.35,961.43,49.32,6.31,29.31,68.49,-12.00,59.85,26.25,28.6
2026/04/13 15:06:00.01,IMU,-344.73,907.71,89.84,-9.57,18.15,64.92,-18.15,61.65,25.35,28.8
2026/04/13 15:06:00.11,IMU,-153.81,952.64,21.97,13.49,12.78,42.49,-22.05,60.30,24.45,28.8
2026/04/13 15:06:00.21,IMU,-133.30,987.79,1.46,18.81,20.70,58.95,-27.15,61.05,22.65,28.6
2026/04/13 15:06:00.31,IMU,20.02,996.58,-35.16,17.10,16.93,81.27,-34.95,59.10,20.85,28.7
2026/04/13 15:06:00.41,IMU,133.30,967.29,-17.58,18.68,11.26,61.82,-44.10,55.80,22.35,28.6
2026/04/13 15:06:00.51,IMU,239.26,958.98,-120.12,13.26,5.85,42.69,-46.05,54.75,17.40,28.7
2026/04/13 15:06:00.61,IMU,295.41,927.25,-75.68,21.53,-1.24,54.61,-48.45,50.85,14.40,28.6
2026/04/13 15:06:00.71,IMU,410.16,896.97,-202.64,67.97,-22.51,46.95,-52.05,48.75,12.45,28.5
2026/04/13 15:06:00.81,IMU,429.20,758.30,-263.67,86.81,-18.92,37.27,-55.05,42.45,5.70,28.8
2026/04/13 15:06:00.91,IMU,418.95,797.36,-470.70,75.53,0.76,10.86,-55.65,37.35,-3.00,28.7
2026/04/13 15:06:01.02,IMU,492.68,745.12,-578.13,48.32,-2.36,20.87,-53.85,35.40,-5.10,28.5
2026/04/13 15:06:01.12,IMU,465.33,665.04,-579.10,44.60,-20.43,7.69,-54.45,30.75,-9.00,28.8
2026/04/13 15:06:01.22,IMU,483.40,614.75,-712.40,35.30,-5.32,-12.24,-54.00,29.55,-11.10,28.7
2026/04/13 15:06:01.32,IMU,422.36,591.31,-715.33,41.15,-16.16,-18.77,-53.10,28.20,-14.25,28.7
2026/04/13 15:06:01.42,IMU,333.01,478.52,-708.01,45.18,-3.53,4.92,-54.90,22.20,-11.25,28.9
2026/04/13 15:06:01.52,IMU,384.28,442.87,-801.27,28.53,-27.96,18.14,-51.45,20.85,-16.50,28.6
2026/04/13 15:06:01.62,IMU,403.81,401.37,-822.27,24.69,-25.49,-13.22,-52.05,18.30,-18.45,28.7
2026/04/13 15:06:01.72,IMU,420.90,405.27,-868.16,7.58,1.39,-13.67,-52.05,17.25,-19.20,28.8
2026/04/13 15:06:01.83,IMU,321.78,404.30,-845.70,12.56,-1.19,-16.68,-53.10,14.85,-20.25,28.6
2026/04/13 15:06:01.93,IMU,272.95,366.70,-872.07,22.79,3.27,7.71,-52.50,14.70,-19.05,28.4
2026/04/13 15:06:02.03,IMU,341.80,345.21,-853.03,28.61,-17.97,-9.93,-52.80,14.10,-18.90,28.5
2026/04/13 15:06:02.13,IMU,291.50,233.89,-806.15,24.80,-23.13,-15.36,-51.00,12.15,-20.85,28.6
2026/04/13 15:06:02.23,IMU,410.64,302.73,-938.96,11.35,-10.61,3.74,-50.85,8.85,-19.95,28.7
2026/04/13 15:06:02.33,IMU,308.11,191.41,-885.25,12.56,0.08,-21.03,-52.50,7.20,-20.85,28.6
2026/04/13 15:06:02.43,IMU,289.55,183.11,-880.86,-0.30,12.40,-15.69,-51.60,7.35,-20.70,28.7
2026/04/13 15:06:02.53,IMU,240.72,207.03,-850.10,-1.78,-9.40,-15.79,-51.75,10.50,-21.15,28.5
2026/04/13 15:06:02.63,IMU,281.25,306.64,-1027.83,11.18,-3.55,-3.25,-51.45,11.25,-22.65,28.6
2026/04/13 15:06:02.73,IMU,299.80,234.86,-852.54,-17.08,-11.79,-7.63,-51.45,8.70,-20.10,28.6
2026/04/13 15:06:02.83,IMU,326.17,250.98,-866.70,26.69,-5.47,-22.85,-50.85,10.80,-21.45,28.7
2026/04/13 15:06:02.93,IMU,193.36,300.29,-1096.19,13.24,2.11,29.76,-50.70,6.75,-21.90,28.6
2026/04/13 15:06:03.03,IMU,428.71,374.51,-919.92,-65.14,-18.24,17.65,-51.00,7.50,-21.90,28.7
2026/04/13 15:06:03.13,IMU,228.52,359.38,-853.03,-88.05,12.27,38.71,-48.75,13.05,-21.00,28.4
2026/04/13 15:06:03.23,IMU,416.99,368.16,-771.00,-106.56,-10.34,63.04,-49.95,20.10,-18.30,28.8
2026/04/13 15:06:03.33,IMU,494.63,479.00,-819.34,34.06,36.55,57.70,-51.75,22.35,-17.55,28.8
2026/04/13 15:06:03.43,IMU,522.95,448.73,-711.43,-30.78,47.68,22.95,-55.35,19.05,-16.35,28.6
2026/04/13 15:06:03.53,IMU,579.59,596.68,-668.46,-63.13,53.05,4.76,-58.95,21.45,-13.80,28.9
2026/04/13 15:06:03.63,IMU,608.89,565.92,-562.99,-57.23,46.11,-59.50,-58.50,27.30,-9.00,28.5
2026/04/13 15:06:03.73,IMU,279.30,791.99,-452.64,-67.64,-22.34,-150.10,-55.65,35.10,-3.75,28.7
2026/04/13 15:06:03.83,IMU,204.10,993.16,-359.86,-65.73,-41.23,-136.17,-43.95,47.55,1.95,28.7
2026/04/13 15:06:03.93,IMU,-102.05,746.09,100.10,-33.74,-55.24,-120.53,-30.15,53.85,8.25,28.7
2026/04/13 15:06:04.03,IMU,-257.32,956.05,-195.80,-30.68,-48.17,-125.95,-18.45,58.20,14.25,28.5
2026/04/13 15:06:04.13,IMU,-319.34,877.93,-243.16,20.52,-18.38,-106.46,-7.35,57.60,16.95,28.8
2026/04/13 15:06:04.23,IMU,-578.13,714.84,-219.24,33.68,2.36,-81.24,0.90,55.20,13.05,28.7
2026/04/13 15:06:04.33,IMU,-631.84,636.72,-258.30,25.40,57.92,9.22,2.85,49.65,9.30,28.7
2026/04/13 15:06:04.44,IMU,-588.87,526.37,-324.22,53.19,75.98,38.90,-3.45,47.55,-1.20,28.6
2026/04/13 15:06:04.54,IMU,-574.22,615.72,-522.46,93.92,64.79,24.89,-10.20,41.25,-7.80,28.8
2026/04/13 15:06:04.64,IMU,-349.61,645.51,-758.30,59.11,29.68,-1.18,-15.60,33.15,-16.05,28.8
2026/04/13 15:06:04.74,IMU,-396.00,510.25,-788.57,34.98,69.98,52.96,-24.00,28.95,-19.65,28.6
2026/04/13 15:06:04.84,IMU,-329.10,634.28,-978.52,7.39,113.65,123.63,-32.10,26.25,-21.00,28.6
2026/04/13 15:06:04.94,IMU,27.34,525.39,-817.38,8.97,63.05,106.75,-44.70,22.50,-19.65,28.7
2026/04/13 15:06:05.04,IMU,205.08,430.66,-804.20,8.90,7.95,67.75,-50.70,20.10,-19.05,28.8
2026/04/13 15:06:05.14,IMU,312.99,436.04,-870.12,13.69,18.63,73.28,-54.75,14.70,-17.55,28.2
2026/04/13 15:06:05.24,IMU,349.61,360.84,-860.84,-9.17,7.21,49.98,-57.15,12.30,-17.40,28.7
2026/04/13 15:06:05.34,IMU,475.10,284.67,-777.83,-14.73,8.81,29.44,-58.05,10.95,-16.95,28.8
2026/04/13 15:06:05.44,IMU,483.89,276.37,-738.28,-5.76,4.81,-1.21,-58.20,10.80,-15.60,29.0
2026/04/13 15:06:05.54,IMU,474.61,282.71,-738.77,3.45,-0.21,-0.71,-59.70,10.80,-15.60,28.6
2026/04/13 15:06:05.64,IMU,448.24,300.29,-775.88,6.52,-6.82,-6.31,-59.10,10.20,-16.50,28.7
2026/04/13 15:06:05.74,IMU,486.33,332.03,-827.15,2.64,-7.37,-4.62,-58.50,9.75,-16.95,28.6
2026/04/13 15:06:05.84,IMU,491.21,316.41,-840.33,0.36,-5.56,-7.79,-58.20,11.10,-17.10,28.8
2026/04/13 15:06:05.94,IMU,458.50,267.58,-773.44,0.87,-0.10,-8.08,-58.50,10.20,-17.25,28.4
2026/04/13 15:06:06.04,IMU,509.28,325.68,-842.77,-0.39,-0.59,-17.27,-58.20,11.10,-17.85,28.7
2026/04/13 15:06:06.14,IMU,444.34,403.32,-825.20,-20.80,-47.76,-71.15,-56.40,13.05,-19.20,28.6
2026/04/13 15:06:06.24,IMU,428.22,551.76,-1024.41,31.90,-39.64,-55.75,-52.95,18.60,-18.75,28.8
2026/04/13 15:06:06.34,IMU,206.05,374.51,-807.13,35.99,-3.01,27.34,-50.85,12.60,-19.95,28.6
2026/04/13 15:06:06.44,IMU,358.89,327.15,-930.18,47.97,12.72,33.81,-50.40,12.15,-21.60,28.7
2026/04/13 15:06:06.54,IMU,324.22,330.57,-1065.43,31.82,3.60,22.35,-49.80,7.65,-21.00,28.8
2026/04/13 15:06:06.64,IMU,263.18,177.73,-991.21,25.36,-20.22,12.84,-47.55,5.85,-22.80,28.6
2026/04/13 15:06:06.74,IMU,227.54,147.95,-996.58,23.15,-10.26,-3.71,-48.75,3.90,-22.80,28.7
2026/04/13 15:06:06.84,IMU,213.87,112.30,-922.85,9.23,-6.78,2.69,-47.10,3.00,-23.40,28.6
2026/04/13 15:06:06.94,IMU,182.62,99.61,-967.77,12.35,-4.53,10.79,-46.80,2.40,-23.25,28.7
2026/04/13 15:06:07.05,IMU,255.86,115.23,-1093.26,4.38,-3.99,-0.68,-45.90,0.30,-22.65,28.6
2026/04/13 15:06:07.15,IMU,191.89,-4.39,-907.71,-14.31,-4.14,-13.28,-44.40,1.05,-24.15,28.8
2026/04/13 15:06:07.25,IMU,161.13,105.47,-910.16,-1.14,0.93,-10.80,-45.00,0.45,-24.60,28.4
2026/04/13 15:06:07.35,IMU,147.46,99.12,-1001.95,3.93,6.03,3.70,-44.40,1.50,-23.40,28.7
2026/04/13 15:06:07.45,IMU,131.84,71.29,-963.38,0.27,-3.80,-4.14,-45.75,0.15,-23.55,28.9
2026/04/13 15:06:07.55,IMU,172.85,80.57,-975.10,-1.85,13.39,5.81,-47.10,1.05,-23.40,28.6
2026/04/13 15:06:07.65,IMU,216.80,98.63,-892.09,-0.71,4.97,0.08,-43.50,1.65,-21.75,28.7
2026/04/13 15:06:07.75,IMU,233.40,100.59,-881.84,-0.13,28.50,16.57,-46.05,0.45,-22.05,28.6
2026/04/13 15:06:07.85,IMU,258.30,123.54,-1389.16,14.62,23.52,1.97,-46.50,-0.15,-22.50,28.7
2026/04/13 15:06:07.95,IMU,231.93,62.01,-882.32,14.61,9.69,12.82,-48.15,-1.50,-21.90,28.8
2026/04/13 15:06:08.05,IMU,253.91,23.93,-1021.48,26.46,7.26,15.28,-49.20,-3.30,-20.85,28.8
2026/04/13 15:06:08.15,IMU,259.77,-63.96,-1012.70,11.72,-19.37,12.79,-48.75,-5.10,-20.70,28.8
2026/04/13 15:06:08.25,IMU,190.43,-115.72,-289.06,27.56,-10.95,-12.89,-48.30,-7.35,-18.90,28.9
2026/04/13 15:06:08.35,IMU,264.65,-5.86,-1043.95,-2.86,-4.12,-5.45,-47.70,-9.00,-22.35,28.6
2026/04/13 15:06:08.45,IMU,269.53,-59.08,-968.75,-3.64,0.38,-7.60,-48.15,-7.20,-20.85,28.7
2026/04/13 15:06:08.55,IMU,276.37,-62.99,-990.23,-1.33,-5.44,0.88,-48.75,-8.85,-21.45,28.6
2026/04/13 15:06:08.65,IMU,227.05,-47.36,-937.99,-3.68,-18.39,7.73,-47.25,-6.15,-21.75,28.8
2026/04/13 15:06:08.75,IMU,369.63,10.74,-982.42,-3.40,-6.06,21.91,-45.75,-6.15,-24.00,28.7
2026/04/13 15:06:08.85,IMU,162.60,-63.96,-1010.74,-5.65,-2.07,26.69,-43.20,-7.35,-22.50,28.7
2026/04/13 15:06:08.95,IMU,85.45,-60.06,-1015.14,-4.91,-0.56,32.18,-41.70,-6.60,-24.60,28.7
2026/04/13 15:06:09.05,IMU,-4.39,-145.02,-1023.44,-5.56,-4.98,27.36,-39.90,-6.60,-23.25,28.7
2026/04/13 15:06:09.15,IMU,239.75,-93.26,-1028.32,-2.82,2.02,-4.03,-40.80,-7.50,-20.55,28.6
2026/04/13 15:06:09.25,IMU,136.72,-71.78,-1028.81,2.92,-4.56,-8.72,-39.45,-7.35,-21.75,29.0
2026/04/13 15:06:09.35,IMU,234.38,-9.77,-1003.42,-0.32,1.55,-4.08,-40.20,-5.85,-22.80,28.6
2026/04/13 15:06:09.45,IMU,206.05,-99.12,-977.54,3.15,2.67,-16.63,-41.10,-6.45,-22.35,28.8
2026/04/13 15:06:09.55,IMU,195.31,-25.88,-979.49,10.11,-5.18,-43.26,-43.20,-7.65,-19.20,29.0
2026/04/13 15:06:09.65,IMU,163.57,-60.55,-1050.78,-0.04,3.54,-0.79,-39.90,-6.60,-23.55,28.8
2026/04/13 15:06:09.76,IMU,191.41,-41.50,-974.61,-1.73,-8.31,4.73,-40.95,-5.85,-22.80,28.7
2026/04/13 15:06:09.86,IMU,84.96,-45.90,-942.87,1.08,0.73,-0.53,-40.35,-6.45,-21.60,28.9
2026/04/13 15:06:09.96,IMU,196.29,55.18,-1221.68,-17.27,-2.53,-10.45,-40.65,-4.35,-22.50,28.7
2026/04/13 15:06:10.06,IMU,134.28,-15.63,-1002.93,-2.05,1.76,1.03,-40.65,-4.65,-22.80,28.7
2026/04/13 15:06:10.16,IMU,121.58,11.72,-1017.09,1.08,2.27,-0.13,-42.30,-4.50,-22.35,28.7
2026/04/13 15:06:10.26,IMU,136.23,-3.91,-1000.98,0.12,0.11,2.07,-40.95,-5.40,-21.75,29.0
2026/04/13 15:06:10.36,IMU,129.88,-7.81,-993.65,1.07,-1.18,0.50,-40.80,-3.30,-23.10,29.1
2026/04/13 15:06:10.46,IMU,145.02,-24.41,-1004.39,0.82,-0.74,0.48,-40.35,-4.50,-21.90,29.1
2026/04/13 15:06:10.56,IMU,135.25,-15.14,-998.54,0.08,1.34,0.15,-40.65,-3.90,-22.05,28.9
2026/04/13 15:06:10.66,IMU,143.55,-21.48,-1017.09,2.31,-0.24,1.60,-41.85,-4.50,-21.60,28.9
2026/04/13 15:06:10.76,IMU,145.51,-15.14,-995.12,0.33,1.62,-0.88,-41.25,-4.35,-21.75,28.8
2026/04/13 15:06:10.86,IMU,136.23,-12.21,-1010.25,0.81,-2.11,0.75,-41.85,-4.50,-22.35,28.6
2026/04/13 15:06:10.96,IMU,136.23,-27.34,-993.16,0.40,0.79,1.73,-42.60,-5.25,-20.10,28.8
2026/04/13 15:06:11.06,IMU,132.81,-17.09,-1006.35,0.15,-2.58,-2.36,-41.55,-4.50,-20.55,28.6
2026/04/13 15:06:11.16,IMU,135.25,-5.37,-1008.30,1.33,1.93,-2.23,-41.85,-4.50,-20.10,29.0
2026/04/13 15:06:11.26,IMU,144.53,-2.93,-1018.55,-0.63,-0.16,-1.50,-40.20,-5.10,-21.45,28.7
2026/04/13 15:06:11.36,IMU,142.09,-15.14,-1010.25,2.33,-0.13,-0.66,-40.05,-7.20,-20.85,28.8
2026/04/13 15:06:11.46,IMU,140.63,-16.60,-1006.84,0.64,-1.13,3.84,-38.40,-5.10,-21.45,28.8
2026/04/13 15:06:11.56,IMU,139.65,8.79,-1014.65,0.30,1.73,2.05,-39.60,-5.55,-21.15,28.9
2026/04/13 15:06:11.66,IMU,136.23,-12.21,-1017.09,-0.18,1.99,-2.66,-40.35,-6.00,-21.15,29.1
2026/04/13 15:06:11.76,IMU,134.28,-18.55,-1001.46,-0.29,-1.08,0.66,-38.70,-4.35,-22.50,28.9
2026/04/13 15:06:11.86,IMU,140.63,-21.00,-992.68,2.02,-1.67,-4.11,-40.35,-4.80,-21.90,28.9
2026/04/13 15:06:11.96,IMU,121.58,-15.14,-1002.44,-0.03,-0.11,1.15,-40.65,-4.65,-20.25,28.6
2026/04/13 15:06:12.06,IMU,135.74,-17.58,-999.51,0.96,-1.06,-1.62,-40.80,-5.25,-22.35,28.9
2026/04/13 15:06:12.17,IMU,142.09,-7.81,-997.56,0.75,-1.51,-0.68,-39.60,-6.75,-20.85,28.8
2026/04/13 15:06:12.27,IMU,135.74,-4.88,-1007.32,1.24,0.14,0.08,-38.70,-5.85,-21.45,28.8
2026/04/13 15:06:12.37,IMU,144.53,-24.41,-1001.46,-0.53,0.63,0.60,-39.00,-6.75,-21.90,28.7
2026/04/13 15:06:12.47,IMU,131.35,-9.77,-1001.46,1.08,1.63,-1.02,-40.05,-5.55,-21.60,28.9
2026/04/13 15:06:12.57,IMU,136.72,-6.35,-987.79,0.20,0.38,-1.40,-39.90,-6.90,-21.45,28.8
2026/04/13 15:06:12.67,IMU,116.70,-9.77,-1001.46,-0.65,3.35,0.92,-41.85,-5.25,-22.35,29.0
2026/04/13 15:06:12.77,IMU,137.70,-10.74,-999.51,-0.05,0.91,-1.63,-40.95,-6.15,-19.65,28.9
2026/04/13 15:06:12.87,IMU,148.44,-4.39,-998.05,1.25,-0.43,-0.89,-39.00,-4.80,-20.85,29.0
2026/04/13 15:06:12.97,IMU,142.58,-13.18,-1012.70,-0.18,-0.92,1.07,-40.65,-5.10,-22.05,29.1
2026/04/13 15:06:13.07,IMU,122.56,-23.93,-1010.25,1.00,2.31,1.65,-39.60,-6.00,-20.55,28.7
2026/04/13 15:06:13.17,IMU,140.14,-6.84,-1009.28,-0.64,1.66,-1.45,-40.05,-5.55,-22.35,28.6
2026/04/13 15:06:13.27,IMU,147.95,-22.95,-1008.30,0.62,-0.04,0.20,-39.00,-6.00,-22.65,29.0
2026/04/13 15:06:13.37,IMU,115.72,-21.48,-1004.88,-0.56,-1.10,-0.18,-39.90,-5.85,-21.75,29.0
2026/04/13 15:06:13.47,IMU,152.83,-6.35,-999.02,-1.57,0.34,-1.28,-40.35,-5.25,-20.55,28.9
2026/04/13 15:06:13.57,IMU,136.72,-21.48,-1001.95,-0.67,0.40,0.87,-40.65,-5.85,-20.25,28.9
2026/04/13 15:06:13.67,IMU,127.93,-9.77,-1009.28,-0.12,3.38,0.56,-39.30,-4.80,-22.65,28.9
2026/04/13 15:06:13.77,IMU,128.42,1.46,-1005.86,-0.69,-0.40,-0.14,-38.25,-6.00,-22.65,28.8
2026/04/13 15:06:13.87,IMU,135.74,-8.30,-1007.32,1.45,1.37,1.85,-39.90,-7.35,-21.00,28.7
