Timestamp,Sensor,AccX,AccY,AccZ,GyrX,GyrY,GyrZ,MagX,MagY,MagZ,Temp
2026/04/15 14:29:14.00,IMU,-244.14,-38.57,-1049.80,27.23,-2.18,-20.56,125.10,67.50,-27.30,27.5
2026/04/15 14:29:14.10,IMU,-73.24,-87.40,-1252.44,21.69,-0.11,-10.82,124.35,66.75,-27.75,27.3
2026/04/15 14:29:14.20,IMU,-124.51,18.55,-1213.38,38.94,33.67,-35.80,121.20,63.45,-27.15,27.5
2026/04/15 14:29:14.30,IMU,-129.88,122.56,-1120.12,-4.08,21.94,-39.93,118.65,60.45,-30.00,27.6
2026/04/15 14:29:14.40,IMU,-220.21,-48.34,-1183.59,-4.56,-6.18,-47.58,118.35,58.80,-32.10,27.5
2026/04/15 14:29:14.50,IMU,-208.50,41.50,-929.69,12.18,-32.42,-14.29,121.20,57.00,-31.50,27.5
2026/04/15 14:29:14.60,IMU,-163.09,-10.25,-840.33,1.38,-52.92,-20.43,123.75,58.20,-30.45,27.6
2026/04/15 14:29:14.70,IMU,-181.64,-111.33,-918.95,-11.64,-55.41,-9.33,127.20,58.05,-27.00,27.4
2026/04/15 14:29:14.80,IMU,-118.16,-152.34,-898.93,8.16,-35.12,-43.02,131.10,56.25,-24.30,27.5
2026/04/15 14:29:14.90,IMU,-206.05,-168.95,-869.63,3.05,-10.22,-54.01,132.15,52.50,-21.75,27.3
2026/04/15 14:29:15.00,IMU,-148.44,-146.48,-833.98,-0.57,16.36,-37.52,130.35,49.50,-23.25,27.5
2026/04/15 14:29:15.11,IMU,-342.77,-104.00,-886.72,2.47,29.07,1.49,129.30,48.00,-22.50,27.5
2026/04/15 14:29:15.21,IMU,-208.50,-242.19,-725.10,-1.33,11.21,10.90,126.75,48.30,-25.05,27.5
2026/04/15 14:29:15.31,IMU,44.43,-146.97,-1027.34,39.73,51.43,-24.47,125.55,47.55,-26.85,27.2
2026/04/15 14:29:15.41,IMU,-207.52,-116.21,-1141.60,-0.33,-16.05,5.44,122.40,45.45,-28.05,27.6
2026/04/15 14:29:15.51,IMU,-81.54,-144.04,-1060.06,11.66,31.25,15.88,124.65,45.45,-25.50,27.6
2026/04/15 14:29:15.61,IMU,-258.79,-79.59,-1019.04,-10.15,8.92,41.29,111.75,34.50,-30.90,27.5
2026/04/15 14:29:15.71,IMU,-151.37,-121.58,-1327.15,-39.59,32.43,28.82,114.30,40.95,-30.60,27.5
2026/04/15 14:29:15.81,IMU,-56.15,37.60,-1099.12,12.40,80.77,67.48,121.20,56.70,-27.60,27.5
2026/04/15 14:29:15.91,IMU,-142.09,-93.75,-1078.13,-5.05,6.72,83.63,127.80,68.10,-24.60,27.1
2026/04/15 14:29:16.01,IMU,-47.36,-159.18,-804.20,1.69,-113.74,42.28,130.95,73.20,-24.15,27.6
2026/04/15 14:29:16.11,IMU,-69.82,83.50,-1029.79,-16.33,5.34,38.04,140.55,83.85,-18.30,27.5
2026/04/15 14:29:16.21,IMU,-175.29,56.15,-1154.30,-28.36,-33.27,84.49,138.60,85.80,-19.80,27.5
2026/04/15 14:29:16.31,IMU,39.06,-0.98,-906.74,-17.93,-19.44,62.69,136.95,90.90,-20.70,27.4
2026/04/15 14:29:16.41,IMU,-113.77,19.04,-1238.28,61.75,-14.05,77.29,138.30,92.55,-20.55,27.5
2026/04/15 14:29:16.51,IMU,-69.34,-351.56,-857.91,36.99,9.98,60.48,136.80,93.30,-22.35,27.2
2026/04/15 14:29:16.61,IMU,-32.23,-163.57,-926.76,-3.96,27.04,3.24,135.90,91.65,-20.25,27.5
2026/04/15 14:29:16.71,IMU,-190.92,-35.64,-1564.45,-19.18,17.25,12.14,136.20,93.90,-22.50,27.3
2026/04/15 14:29:16.81,IMU,62.99,-77.15,-989.75,58.15,58.35,12.08,153.90,115.95,-9.15,27.6
2026/04/15 14:29:16.91,IMU,87.40,-283.69,-809.57,11.05,18.44,4.46,147.15,97.95,14.40,27.3
2026/04/15 14:29:17.01,IMU,122.07,-234.38,-1070.31,-17.06,16.70,-7.91,154.95,113.70,1.95,27.6
2026/04/15 14:29:17.11,IMU,151.86,-197.27,-1034.18,17.34,-19.16,-14.34,145.80,111.00,45.15,27.4
2026/04/15 14:29:17.21,IMU,262.70,-161.13,-912.60,11.68,23.41,-7.08,141.45,114.75,49.95,27.6
2026/04/15 14:29:17.31,IMU,257.81,-406.25,-1332.03,26.76,-11.90,-11.11,105.15,97.20,70.65,27.3
2026/04/15 14:29:17.41,IMU,149.41,-66.89,-1455.57,43.47,-125.22,3.02,21.75,28.20,24.30,27.5
2026/04/15 14:29:17.51,IMU,179.20,-384.28,-1176.76,-8.30,61.66,2.56,15.15,8.85,6.60,27.3
2026/04/15 14:29:17.61,IMU,204.10,-339.84,-855.96,35.56,-48.85,-33.40,14.40,2.70,-0.90,27.6
2026/04/15 14:29:17.71,IMU,177.25,-311.52,-797.85,-45.35,4.55,-15.06,16.65,-0.45,-2.70,27.1
2026/04/15 14:29:17.81,IMU,271.00,-193.85,-832.03,-94.08,25.41,17.47,16.35,2.40,-3.30,27.6
2026/04/15 14:29:17.91,IMU,348.63,-44.43,-952.15,-86.57,25.33,20.02,15.45,9.45,-0.60,27.5
2026/04/15 14:29:18.02,IMU,399.41,66.89,-1042.97,-65.71,11.37,21.81,15.60,14.55,-0.45,27.5
2026/04/15 14:29:18.12,IMU,326.17,77.64,-982.91,-13.56,-16.85,23.32,14.85,18.30,1.20,27.6
2026/04/15 14:29:18.22,IMU,329.10,15.14,-875.49,12.91,-2.60,5.90,13.95,17.70,3.15,27.5
2026/04/15 14:29:18.32,IMU,277.34,8.30,-923.34,1.47,-19.27,2.57,13.35,14.55,1.50,27.5
2026/04/15 14:29:18.42,IMU,287.11,29.79,-978.52,-2.73,-12.42,-0.93,15.15,16.05,1.20,27.5
2026/04/15 14:29:18.52,IMU,266.11,23.44,-937.99,2.63,-12.60,2.92,16.50,16.65,1.80,27.5
2026/04/15 14:29:18.62,IMU,285.64,36.62,-956.05,-0.51,-7.85,-0.77,15.45,15.15,1.80,27.6
2026/04/15 14:29:18.72,IMU,292.48,30.27,-923.83,-21.40,-1.47,5.73,16.80,18.60,1.05,27.5
2026/04/15 14:29:18.82,IMU,297.85,56.64,-952.64,-13.40,1.68,9.69,17.55,18.90,2.85,27.3
2026/04/15 14:29:18.92,IMU,303.22,73.24,-927.73,-0.98,0.81,19.47,16.80,18.15,2.85,27.5
2026/04/15 14:29:19.02,IMU,290.04,47.36,-954.59,2.32,-9.15,11.60,15.90,18.75,3.00,27.3
2026/04/15 14:29:19.12,IMU,271.48,52.73,-974.12,-0.19,-14.31,14.88,15.15,18.75,4.50,27.6
2026/04/15 14:29:19.22,IMU,236.82,35.16,-999.51,-1.57,-2.94,18.21,14.85,16.80,3.00,27.5
2026/04/15 14:29:19.32,IMU,229.98,77.64,-987.30,-13.23,-3.13,15.85,17.25,18.90,2.10,27.5
2026/04/15 14:29:19.42,IMU,218.26,97.17,-1012.21,-6.53,-10.40,12.49,15.75,17.40,2.40,27.5
2026/04/15 14:29:19.52,IMU,204.59,89.84,-959.96,3.94,-7.07,13.40,14.40,19.80,3.75,27.5
2026/04/15 14:29:19.62,IMU,185.55,40.53,-985.84,0.97,-3.55,13.02,16.35,19.80,3.75,27.5
2026/04/15 14:29:19.72,IMU,156.25,70.31,-979.49,-5.40,-7.03,-0.39,15.60,19.05,4.05,27.5
2026/04/15 14:29:19.82,IMU,139.16,58.59,-1028.81,-4.10,1.85,4.35,16.35,21.00,4.50,27.6
2026/04/15 14:29:19.92,IMU,129.39,52.25,-1001.46,4.11,-6.27,-1.66,15.75,19.65,6.00,27.5
2026/04/15 14:29:20.02,IMU,152.83,55.66,-993.65,-1.15,-4.59,-3.17,16.80,19.65,4.95,27.6
2026/04/15 14:29:20.12,IMU,151.86,75.20,-1016.11,0.20,-2.85,-0.08,13.05,18.75,9.45,27.6
2026/04/15 14:29:20.22,IMU,160.64,89.36,-981.93,-6.22,-1.02,-2.11,17.55,20.40,4.20,27.3
2026/04/15 14:29:20.32,IMU,143.55,92.77,-1001.95,-1.46,0.11,-0.44,17.70,19.05,4.50,27.5
2026/04/15 14:29:20.42,IMU,124.02,107.42,-1009.28,1.16,1.19,-4.07,18.45,21.45,4.80,27.3
2026/04/15 14:29:20.52,IMU,136.72,104.49,-983.40,-6.43,2.13,-2.20,17.10,20.25,5.55,27.7
2026/04/15 14:29:20.62,IMU,127.44,81.54,-975.59,3.95,-4.75,-0.55,18.45,21.00,5.10,27.5
2026/04/15 14:29:20.72,IMU,127.93,106.93,-1011.23,-0.31,-3.72,-1.76,17.70,20.55,4.05,27.3
2026/04/15 14:29:20.83,IMU,127.44,98.63,-1021.97,-0.90,0.86,3.26,17.70,20.25,5.10,27.2
2026/04/15 14:29:20.93,IMU,156.25,99.61,-1003.91,2.60,-1.17,3.45,17.10,22.20,3.75,27.5
2026/04/15 14:29:21.03,IMU,108.89,69.34,-1046.39,19.31,-11.15,-2.95,19.05,20.10,4.20,27.3
2026/04/15 14:29:21.13,IMU,117.19,69.34,-989.26,6.59,-0.42,-0.31,15.60,16.80,9.45,27.5
2026/04/15 14:29:21.23,IMU,209.96,125.49,-1010.25,-14.18,17.60,13.91,19.05,21.15,5.40,27.6
2026/04/15 14:29:21.33,IMU,206.05,65.43,-1036.13,6.79,14.58,36.47,16.65,21.45,5.10,27.5
2026/04/15 14:29:21.43,IMU,119.14,-18.55,-950.68,22.63,9.15,21.47,13.95,19.35,2.85,27.3
2026/04/15 14:29:21.53,IMU,124.51,-2.93,-913.57,-9.12,6.75,26.43,12.60,17.25,1.95,27.5
2026/04/15 14:29:21.63,IMU,190.43,-33.69,-1051.27,17.08,4.53,38.17,9.45,18.60,1.35,27.5
2026/04/15 14:29:21.73,IMU,130.37,-64.45,-1023.93,19.95,-7.64,10.81,7.35,17.70,1.05,27.4
2026/04/15 14:29:21.83,IMU,151.86,-30.27,-1007.81,-0.08,-4.64,-0.98,4.35,16.20,2.10,27.6
2026/04/15 14:29:21.93,IMU,116.70,-84.47,-958.50,8.77,3.79,7.94,1.80,15.45,6.00,27.6
2026/04/15 14:29:22.03,IMU,177.25,-43.95,-953.61,-3.44,-27.32,3.25,0.30,16.95,10.05,27.2
2026/04/15 14:29:22.13,IMU,130.37,-125.00,-1049.80,14.54,-14.30,1.69,-5.10,17.40,15.75,27.2
2026/04/15 14:29:22.23,IMU,162.60,-110.35,-1120.12,1.26,-20.87,-14.31,-14.40,24.00,23.25,27.5
2026/04/15 14:29:22.33,IMU,131.35,-130.37,-1026.86,-3.30,1.59,-6.21,-16.05,26.55,24.45,27.3
2026/04/15 14:29:22.43,IMU,115.72,-100.10,-1000.00,-9.56,-20.39,1.39,-12.00,29.10,31.65,27.5
2026/04/15 14:29:22.53,IMU,84.96,-125.49,-1018.07,-8.52,-9.76,-7.92,-12.00,34.50,50.40,27.5
2026/04/15 14:29:22.63,IMU,161.13,30.76,-976.07,-7.40,-6.61,-1.85,-18.75,39.75,68.10,27.6
2026/04/15 14:29:22.73,IMU,-24.41,-220.70,-1370.61,13.16,-56.60,-14.80,17.40,53.70,141.60,27.2
2026/04/15 14:29:22.83,IMU,-11.72,-186.52,-471.19,69.82,-18.05,-37.70,83.85,72.90,80.40,27.5
2026/04/15 14:29:22.93,IMU,39.06,-89.84,-1166.50,11.08,12.71,24.25,97.95,82.50,48.15,27.5
2026/04/15 14:29:23.03,IMU,-80.57,-149.90,-1205.08,-12.89,-8.85,29.11,101.10,78.15,51.90,27.5
2026/04/15 14:29:23.13,IMU,7.81,-184.57,-1004.88,-3.56,-7.75,-0.37,104.25,78.30,55.35,27.2
2026/04/15 14:29:23.23,IMU,-163.57,-211.91,-853.52,3.25,12.96,16.71,112.35,88.20,54.60,27.5
2026/04/15 14:29:23.33,IMU,-97.17,47.85,-771.97,-20.75,-11.29,16.28,113.10,90.15,52.05,27.5
2026/04/15 14:29:23.43,IMU,-430.66,756.35,-2000.00,-18.50,39.63,-41.73,183.15,160.50,-38.85,27.5
2026/04/15 14:29:23.54,IMU,-88.87,-130.86,-996.09,20.95,12.24,6.60,191.25,160.20,-38.25,27.6
2026/04/15 14:29:23.64,IMU,-14.16,-102.05,-1076.66,2.86,0.36,24.36,193.05,161.70,-36.45,27.6
2026/04/15 14:29:23.74,IMU,-127.44,-96.68,-1025.88,13.48,7.52,22.11,191.25,160.95,-36.45,27.5
2026/04/15 14:29:23.84,IMU,-179.69,-107.42,-957.52,14.95,-9.50,20.89,190.20,160.50,-36.45,27.3
2026/04/15 14:29:23.94,IMU,-179.69,-108.40,-978.03,9.19,-14.83,7.24,190.65,161.55,-37.95,27.5
2026/04/15 14:29:24.04,IMU,-183.59,-114.26,-951.17,-7.60,17.05,0.96,192.30,161.70,-35.70,27.3
2026/04/15 14:29:24.14,IMU,-105.47,-107.91,-1001.46,3.46,27.78,-2.43,192.90,161.55,-35.55,27.6
2026/04/15 14:29:24.24,IMU,-42.97,-124.51,-1011.72,-4.10,4.11,4.39,189.45,162.00,-36.45,27.1
2026/04/15 14:29:24.34,IMU,-92.77,-97.66,-1062.01,8.03,-5.26,9.24,189.00,163.50,-36.45,27.3
2026/04/15 14:29:24.44,IMU,-89.36,-110.84,-941.41,15.08,-5.98,13.44,190.05,162.30,-35.10,27.5
2026/04/15 14:29:24.54,IMU,-108.89,-113.28,-967.29,10.05,3.15,4.75,190.50,161.25,-36.00,27.6
2026/04/15 14:29:24.64,IMU,-62.50,-102.05,-1008.79,4.37,3.70,-0.92,190.05,159.90,-35.55,27.3
2026/04/15 14:29:24.74,IMU,-64.45,-132.32,-1005.86,-2.53,8.29,-0.82,190.05,160.65,-36.60,27.5
2026/04/15 14:29:24.84,IMU,-85.94,-129.88,-1027.83,-4.53,-1.50,1.44,188.85,160.35,-36.90,27.5
2026/04/15 14:29:24.94,IMU,-84.47,-118.16,-1020.51,-1.15,5.56,0.45,189.75,159.45,-36.75,27.5
2026/04/15 14:29:25.04,IMU,-83.50,-123.05,-1000.49,1.10,-1.05,5.06,189.30,161.10,-35.85,27.2
2026/04/15 14:29:25.14,IMU,-83.01,-104.98,-983.40,4.97,-0.07,2.89,190.20,159.45,-36.75,27.6
2026/04/15 14:29:25.24,IMU,-108.89,-112.30,-995.61,-3.38,-2.66,2.69,189.75,160.95,-38.85,27.6
2026/04/15 14:29:25.34,IMU,-98.14,-114.75,-1001.95,-5.41,-2.74,1.20,191.25,159.45,-37.05,27.4
2026/04/15 14:29:25.44,IMU,-85.94,-97.66,-1034.18,-3.18,3.21,-1.55,190.50,160.95,-36.75,27.5
2026/04/15 14:29:25.54,IMU,-56.64,-101.07,-1014.16,0.88,-1.11,-6.89,190.95,160.20,-36.00,27.4
2026/04/15 14:29:25.64,IMU,-39.06,-129.39,-980.96,-1.76,2.43,2.60,188.70,160.50,-37.05,27.6
2026/04/15 14:29:25.74,IMU,-65.43,-106.45,-997.56,-3.44,-0.16,3.75,190.20,158.70,-36.45,27.5
2026/04/15 14:29:25.84,IMU,-85.94,-116.21,-1013.18,1.13,-1.09,2.79,190.20,159.75,-38.55,27.5
2026/04/15 14:29:25.94,IMU,-91.31,-110.84,-1003.42,0.55,-0.27,6.08,190.95,160.95,-36.45,27.7
2026/04/15 14:29:26.04,IMU,-115.23,-118.65,-1032.23,0.90,3.47,0.04,187.95,161.25,-36.45,27.3
2026/04/15 14:29:26.14,IMU,-80.08,-106.93,-1041.99,3.59,-0.37,0.71,190.95,159.45,-36.45,27.6
2026/04/15 14:29:26.25,IMU,-79.10,-113.77,-1014.65,4.91,0.66,0.08,188.85,159.90,-36.90,27.3
2026/04/15 14:29:26.35,IMU,-91.31,-105.47,-1000.98,2.56,3.69,2.18,190.20,159.00,-37.05,27.6
2026/04/15 14:29:26.45,IMU,-77.64,-106.93,-1029.30,1.10,-2.66,4.36,188.85,159.90,-36.15,27.6
2026/04/15 14:29:26.55,IMU,-85.45,-109.86,-965.33,-2.89,-6.46,6.11,190.65,158.85,-37.65,27.5
2026/04/15 14:29:26.65,IMU,-125.98,-111.33,-1030.27,-6.47,-2.52,5.23,190.20,162.00,-36.45,27.3
2026/04/15 14:29:26.75,IMU,-87.40,-101.07,-1044.43,2.25,-0.78,2.73,190.05,160.35,-37.65,27.5
2026/04/15 14:29:26.85,IMU,-99.61,-107.91,-984.38,1.57,-2.82,1.56,189.45,162.45,-37.80,27.3
2026/04/15 14:29:26.95,IMU,-113.77,-93.75,-1005.37,-3.05,3.08,2.53,190.20,159.75,-37.50,27.4
2026/04/15 14:29:27.05,IMU,-105.96,-62.50,-1034.18,-1.82,-1.88,1.55,190.65,161.55,-37.65,27.5
2026/04/15 14:29:27.15,IMU,-100.59,-91.80,-980.47,-2.98,2.88,2.39,188.85,160.65,-37.95,27.3
2026/04/15 14:29:27.25,IMU,-118.16,-85.94,-1004.88,-6.30,2.12,5.53,188.70,161.70,-36.75,27.5
2026/04/15 14:29:27.35,IMU,-134.28,-80.57,-1001.95,-4.53,-5.59,1.82,188.70,160.95,-37.05,27.3
2026/04/15 14:29:27.45,IMU,-153.81,-90.82,-988.28,-2.65,9.87,-4.21,189.30,160.65,-36.90,27.5
2026/04/15 14:29:27.55,IMU,-127.44,-48.83,-1062.01,-1.11,2.34,0.19,188.10,163.80,-37.65,27.5
2026/04/15 14:29:27.65,IMU,-111.82,-46.88,-1011.23,5.78,4.49,-6.73,187.35,162.60,-36.60,27.5
2026/04/15 14:29:27.75,IMU,-110.84,-43.95,-992.68,1.82,1.11,-4.78,187.20,161.25,-37.05,27.2
2026/04/15 14:29:27.85,IMU,-63.96,-30.76,-1035.64,-5.61,17.75,-3.06,188.85,162.30,-37.65,27.6
2026/04/15 14:29:27.95,IMU,-8.30,-52.25,-1031.74,1.51,23.02,8.62,188.40,160.95,-37.50,27.2
2026/04/15 14:29:28.05,IMU,-60.06,-26.86,-1015.14,7.60,-4.05,37.35,185.70,160.20,-37.05,27.5
2026/04/15 14:29:28.15,IMU,-131.35,-20.51,-934.08,4.58,4.53,50.21,183.00,160.35,-37.95,27.3
2026/04/15 14:29:28.25,IMU,-102.05,-19.53,-1077.15,11.93,-5.34,58.55,179.85,158.70,-35.70,27.4
2026/04/15 14:29:28.35,IMU,-79.59,22.46,-1106.45,7.18,-13.48,64.85,179.70,157.35,-38.40,27.7
2026/04/15 14:29:28.45,IMU,-82.03,-126.95,-852.54,-2.27,-7.44,48.61,179.55,156.75,-38.25,27.6
2026/04/15 14:29:28.55,IMU,-78.12,-89.84,-1122.07,-16.72,2.60,41.79,180.00,157.35,-38.40,27.2
2026/04/15 14:29:28.65,IMU,-89.84,-192.87,-1066.89,-0.11,9.60,13.31,177.45,156.60,-37.65,27.4
2026/04/15 14:29:28.75,IMU,0.98,-165.04,-998.54,9.56,16.58,7.81,176.70,157.35,-38.40,27.1
2026/04/15 14:29:28.85,IMU,-21.00,-98.14,-1027.34,13.81,5.06,13.63,174.15,156.15,-37.95,27.5
2026/04/15 14:29:28.95,IMU,-83.98,-91.80,-953.61,4.45,-6.18,10.01,175.50,154.50,-38.25,27.6
2026/04/15 14:29:29.06,IMU,-49.80,-74.22,-1038.57,1.98,2.15,7.95,175.05,153.00,-38.25,27.3
2026/04/15 14:29:29.16,IMU,-33.69,-82.52,-966.31,2.45,-3.49,9.96,175.05,154.50,-40.35,27.5
2026/04/15 14:29:29.26,IMU,-82.52,-71.78,-968.75,-5.60,5.21,8.59,171.15,151.95,-34.80,27.6
2026/04/15 14:29:29.36,IMU,-62.01,-50.29,-1020.51,-5.51,4.99,2.91,174.75,155.25,-38.55,27.3
2026/04/15 14:29:29.46,IMU,-31.74,-83.98,-960.45,-10.76,0.40,4.99,174.60,154.20,-38.40,27.5
2026/04/15 14:29:29.56,IMU,-59.57,-72.75,-1053.22,-13.95,0.34,4.66,172.65,153.45,-38.70,27.6
2026/04/15 14:29:29.66,IMU,-59.57,-35.16,-1036.13,-1.02,3.08,3.70,174.30,156.75,-36.45,27.5
2026/04/15 14:29:29.76,IMU,-52.73,-30.76,-1068.85,2.78,2.75,-0.56,174.00,155.55,-37.80,27.5
2026/04/15 14:29:29.86,IMU,-24.90,-29.79,-1008.79,3.27,-2.61,0.51,174.15,155.40,-38.40,27.5
2026/04/15 14:29:29.96,IMU,-51.76,-23.44,-999.51,-0.42,-2.07,-0.73,173.40,155.85,-37.65,27.5
2026/04/15 14:29:30.06,IMU,-59.08,-11.23,-1009.28,-2.56,-3.76,2.44,173.40,156.60,-37.65,27.3
2026/04/15 14:29:30.16,IMU,-37.11,-12.70,-1015.63,1.82,1.34,-0.52,172.80,155.25,-38.25,27.5
2026/04/15 14:29:30.27,IMU,-25.88,-33.69,-970.21,-0.79,-4.33,5.61,172.80,154.80,-37.05,27.2
2026/04/15 14:29:30.37,IMU,-45.41,-5.86,-1012.21,-3.82,-0.98,5.18,173.85,155.85,-38.70,27.3
2026/04/15 14:29:30.47,IMU,-34.18,9.28,-1050.78,5.27,5.08,2.13,173.55,155.25,-37.80,27.3
2026/04/15 14:29:30.57,IMU,-10.25,-19.04,-975.10,-2.83,1.88,0.18,172.65,154.65,-37.65,27.5
2026/04/15 14:29:30.67,IMU,-29.30,-15.63,-977.54,-4.27,5.72,-0.15,172.80,153.30,-38.25,27.3
2026/04/15 14:29:30.77,IMU,-12.21,-4.39,-1018.07,-3.82,5.27,2.36,172.65,156.15,-36.60,27.3
2026/04/15 14:29:30.87,IMU,-16.11,-12.21,-1006.84,-1.59,3.47,6.53,173.10,154.20,-38.40,27.4
2026/04/15 14:29:30.97,IMU,-33.20,38.09,-1043.46,-8.24,-2.88,11.24,171.60,155.40,-37.35,27.5
2026/04/15 14:29:31.07,IMU,-36.13,17.09,-990.23,0.16,-1.22,1.08,172.35,155.85,-36.90,27.5
2026/04/15 14:29:31.17,IMU,-21.48,26.37,-1000.98,-7.78,3.78,0.89,171.15,156.15,-36.90,27.6
2026/04/15 14:29:31.27,IMU,-13.18,36.62,-1048.34,-6.52,2.60,-0.38,171.45,155.55,-36.75,27.5
2026/04/15 14:29:31.37,IMU,-20.02,44.43,-1051.76,-2.23,2.28,-0.80,171.45,156.30,-36.45,27.6
2026/04/15 14:29:31.47,IMU,1.46,30.76,-1014.16,-2.48,7.37,-4.88,171.00,157.05,-36.75,27.2
2026/04/15 14:29:31.57,IMU,32.71,40.53,-999.02,1.71,4.50,-7.51,172.65,157.35,-36.15,27.6
2026/04/15 14:29:31.67,IMU,26.37,56.64,-992.68,2.21,2.89,-0.02,171.00,156.30,-36.45,27.4
2026/04/15 14:29:31.77,IMU,4.39,70.31,-998.54,0.07,-2.62,-3.00,172.35,157.65,-35.85,27.5
2026/04/15 14:29:31.87,IMU,12.70,58.59,-1007.81,-3.11,0.09,-2.80,170.70,159.00,-36.00,27.6
2026/04/15 14:29:31.97,IMU,22.46,66.89,-1014.65,-3.12,0.78,-3.53,172.35,156.90,-36.60,27.3
2026/04/15 14:29:32.07,IMU,13.18,55.18,-1018.55,0.13,-3.34,0.92,170.70,157.05,-35.25,27.3
2026/04/15 14:29:32.17,IMU,15.14,41.99,-1005.86,-1.13,-0.83,-1.99,171.15,158.40,-35.85,27.6
2026/04/15 14:29:32.27,IMU,-1.95,59.57,-1033.69,3.64,-1.82,-0.08,171.15,157.35,-36.15,27.4
2026/04/15 14:29:32.37,IMU,11.23,55.66,-1018.07,-0.94,-3.07,0.31,171.45,158.70,-34.95,27.6
2026/04/15 14:29:32.47,IMU,-7.32,48.34,-1019.04,3.34,-4.61,-1.99,171.90,158.10,-36.15,27.6
2026/04/15 14:29:32.57,IMU,-7.81,52.25,-993.65,1.53,-3.00,-4.50,171.75,159.00,-35.70,27.3
2026/04/15 14:29:32.67,IMU,-34.18,40.53,-958.01,-15.97,1.27,-0.05,173.55,158.25,-37.05,27.2
2026/04/15 14:29:32.78,IMU,-18.55,50.29,-1095.70,-8.53,-17.73,2.24,173.85,158.40,-36.60,27.3
2026/04/15 14:29:32.88,IMU,-121.09,48.34,-1023.93,2.72,-12.02,-1.02,174.75,158.70,-36.75,27.5
2026/04/15 14:29:32.98,IMU,-21.48,88.38,-1156.74,22.40,18.49,-20.64,174.15,160.35,-36.90,27.5
2026/04/15 14:29:33.08,IMU,27.83,34.18,-982.91,34.51,-6.55,-0.50,174.75,157.05,-38.25,27.5
2026/04/15 14:29:33.18,IMU,-112.79,34.67,-893.07,10.29,-11.69,15.34,175.20,155.10,-39.45,27.6
2026/04/15 14:29:33.28,IMU,-136.23,49.32,-1017.09,10.66,-13.87,-1.29,175.50,154.80,-38.85,27.5
2026/04/15 14:29:33.38,IMU,-74.22,-85.45,-943.85,10.14,-22.99,-8.24,174.90,155.85,-40.50,27.5
2026/04/15 14:29:33.48,IMU,-54.20,29.79,-1062.50,-22.39,15.96,6.53,175.20,156.15,-39.45,27.6
2026/04/15 14:29:33.58,IMU,-10.25,52.73,-1023.44,10.28,12.23,-8.73,176.85,156.00,-37.50,27.5
2026/04/15 14:29:33.68,IMU,-91.80,-43.46,-828.61,-6.66,-15.82,0.18,175.50,156.30,-38.25,27.5
2026/04/15 14:29:33.78,IMU,-101.07,-8.30,-974.12,-18.37,12.49,-7.90,178.20,155.40,-38.70,27.5
2026/04/15 14:29:33.88,IMU,-111.33,19.53,-1124.51,-16.08,12.88,-9.67,176.55,159.00,-37.80,27.6
2026/04/15 14:29:33.98,IMU,-98.14,-0.98,-1056.64,-9.79,1.78,-4.24,175.95,159.90,-37.65,27.5
2026/04/15 14:29:34.08,IMU,-77.64,16.60,-1041.02,-2.25,8.39,-10.19,176.70,159.90,-37.65,27.4
2026/04/15 14:29:34.18,IMU,-85.45,19.04,-940.92,2.17,2.46,-9.60,177.90,160.35,-36.15,27.6
2026/04/15 14:29:34.28,IMU,-83.50,33.20,-1038.09,-17.37,6.57,-8.05,177.30,160.50,-35.25,27.5
2026/04/15 14:29:34.38,IMU,-85.45,77.15,-1114.26,4.56,11.18,-16.69,177.45,163.35,-36.15,27.3
2026/04/15 14:29:34.48,IMU,-72.75,45.90,-987.30,-2.39,17.44,-20.90,177.60,160.50,-35.25,27.3
2026/04/15 14:29:34.58,IMU,-21.00,107.91,-1043.46,21.10,21.42,-12.76,176.25,162.75,-35.70,27.3
2026/04/15 14:29:34.68,IMU,-24.41,112.30,-955.57,22.96,-10.86,10.73,175.65,161.85,-35.85,27.5
2026/04/15 14:29:34.78,IMU,-96.68,55.18,-858.89,16.24,-25.99,15.47,175.50,159.75,-36.75,27.5
2026/04/15 14:29:34.88,IMU,-150.88,35.64,-963.87,4.18,-23.65,12.43,177.60,159.45,-37.80,27.5
2026/04/15 14:29:34.98,IMU,-167.48,50.78,-1024.90,5.31,-16.44,5.03,176.55,158.25,-38.55,27.6
2026/04/15 14:29:35.08,IMU,-145.51,90.33,-1126.95,0.13,-13.92,2.91,178.50,158.40,-39.45,27.5
2026/04/15 14:29:35.18,IMU,-79.10,83.01,-1070.80,10.56,-3.09,-14.07,178.95,158.85,-38.40,27.2
2026/04/15 14:29:35.28,IMU,107.42,56.15,-1027.34,19.12,49.36,-5.21,179.70,157.35,-39.45,27.3
2026/04/15 14:29:35.38,IMU,-76.66,39.55,-976.07,5.45,-5.95,13.18,178.05,157.05,-39.30,27.5
2026/04/15 14:29:35.49,IMU,73.73,-17.09,-895.51,-17.92,31.13,2.05,176.55,156.75,-38.55,27.5
2026/04/15 14:29:35.59,IMU,-21.48,-8.79,-884.77,-28.77,-10.95,20.38,174.75,157.05,-37.05,27.6
2026/04/15 14:29:35.69,IMU,-179.69,-47.85,-1053.71,-37.41,19.85,-1.25,175.80,160.50,-37.80,27.5
2026/04/15 14:29:35.79,IMU,31.74,-32.71,-1168.95,-4.12,28.42,-29.99,175.20,161.85,-35.55,27.3
2026/04/15 14:29:35.89,IMU,-67.87,59.08,-984.86,-16.06,-16.13,-28.15,173.10,164.55,-33.00,27.5
2026/04/15 14:29:35.99,IMU,-78.12,184.08,-1124.02,24.10,61.35,-82.18,176.70,166.05,-35.10,27.5
2026/04/15 14:29:36.09,IMU,151.37,236.82,-997.56,-10.59,25.31,-42.69,176.70,165.60,-34.05,27.5
2026/04/15 14:29:36.19,IMU,-111.82,179.69,-967.29,2.73,-18.05,-22.50,176.70,166.80,-33.30,27.1
2026/04/15 14:29:36.29,IMU,-29.30,55.18,-943.85,-16.21,-2.18,-33.35,178.05,167.40,-33.45,27.5
2026/04/15 14:29:36.39,IMU,160.16,206.05,-1399.90,7.50,22.21,-14.51,180.45,167.55,-32.55,27.5
2026/04/15 14:29:36.49,IMU,85.45,108.40,-856.93,38.52,-6.35,4.31,179.85,167.70,-33.90,27.5
2026/04/15 14:29:36.59,IMU,21.00,107.42,-857.42,-11.07,-45.28,16.93,180.30,165.90,-33.90,27.5
2026/04/15 14:29:36.69,IMU,-31.25,36.13,-1015.63,-14.59,17.61,-26.26,181.65,166.95,-34.95,27.4
2026/04/15 14:29:36.79,IMU,271.00,115.23,-1041.99,-1.11,11.19,-15.99,179.85,168.15,-32.70,27.3
2026/04/15 14:29:36.89,IMU,60.55,102.54,-1037.11,3.75,-13.79,16.97,181.65,166.65,-34.65,27.3
2026/04/15 14:29:36.99,IMU,-15.14,88.87,-1012.21,-4.31,-4.83,10.96,179.85,167.40,-33.90,27.5
2026/04/15 14:29:37.09,IMU,-27.83,81.54,-1016.11,3.92,-0.63,0.75,180.90,168.90,-32.70,27.3
2026/04/15 14:29:37.19,IMU,33.20,97.66,-1037.60,6.82,2.72,-1.81,180.45,165.30,-34.35,27.3
2026/04/15 14:29:37.29,IMU,-27.34,108.89,-1022.46,20.05,-4.24,-2.32,180.90,166.95,-35.25,27.5
2026/04/15 14:29:37.39,IMU,-96.68,44.92,-897.95,-20.96,23.63,-23.03,178.50,165.30,-33.00,27.5
2026/04/15 14:29:37.49,IMU,197.75,41.02,-1022.95,-6.63,-4.70,-9.77,181.35,168.45,-33.15,27.5
2026/04/15 14:29:37.59,IMU,116.70,169.43,-1009.28,25.63,17.82,-5.21,181.20,167.25,-34.35,27.3
2026/04/15 14:29:37.69,IMU,194.82,156.25,-1066.89,21.47,3.87,-7.65,180.60,165.45,-34.65,27.3
2026/04/15 14:29:37.79,IMU,99.12,29.30,-868.16,20.98,-13.50,10.13,179.25,164.85,-35.10,27.5
2026/04/15 14:29:37.89,IMU,28.32,-36.62,-824.71,-2.66,-2.16,12.12,180.45,161.85,-36.90,27.4
2026/04/15 14:29:37.99,IMU,90.33,-42.48,-1001.46,-7.95,0.28,4.87,180.30,163.20,-35.70,27.5
2026/04/15 14:29:38.09,IMU,77.64,23.44,-1178.22,-1.77,-3.81,12.82,180.30,164.70,-36.00,27.5
2026/04/15 14:29:38.19,IMU,59.08,54.20,-1050.29,31.93,-9.13,4.05,178.50,163.35,-35.10,27.5
2026/04/15 14:29:38.30,IMU,50.78,-5.86,-844.24,1.38,-3.84,0.83,181.35,161.25,-37.05,27.1
2026/04/15 14:29:38.40,IMU,6.84,-15.63,-936.52,-16.65,7.28,-6.88,175.95,161.85,-31.80,27.4
2026/04/15 14:29:38.50,IMU,30.76,15.14,-1168.46,-11.64,1.23,-9.28,180.45,164.55,-36.90,27.0
2026/04/15 14:29:38.60,IMU,71.78,6.84,-1081.05,3.19,5.30,-13.18,181.65,166.20,-33.90,27.5
2026/04/15 14:29:38.70,IMU,102.54,5.86,-956.54,11.04,3.34,-3.47,181.20,165.30,-35.85,27.5
2026/04/15 14:29:38.80,IMU,62.50,28.32,-1019.53,2.64,-1.02,0.20,181.65,163.20,-35.25,27.6
2026/04/15 14:29:38.90,IMU,83.01,37.11,-1041.50,0.51,-0.92,-2.08,182.55,165.60,-36.15,27.2
2026/04/15 14:29:39.00,IMU,106.45,16.60,-1052.25,-2.32,0.40,2.82,180.45,163.35,-35.55,27.5
2026/04/15 14:29:39.10,IMU,101.56,6.35,-1008.79,-2.12,0.84,1.85,180.30,162.45,-35.70,27.5
2026/04/15 14:29:39.20,IMU,108.89,11.23,-980.47,-2.34,-4.31,6.23,179.55,163.95,-35.25,27.5
2026/04/15 14:29:39.30,IMU,77.64,-1.95,-1005.86,-2.07,1.60,-0.74,181.50,163.80,-35.85,27.6
2026/04/15 14:29:39.41,IMU,93.75,19.04,-991.21,-2.16,1.34,5.85,176.55,161.70,-31.35,27.6
2026/04/15 14:29:39.51,IMU,60.06,3.91,-972.66,-1.45,-1.50,4.46,180.45,164.10,-36.15,27.3
2026/04/15 14:29:39.61,IMU,78.12,2.44,-1001.95,-2.76,-4.60,-1.27,179.85,163.95,-37.05,27.5
2026/04/15 14:29:39.71,IMU,-9.28,37.11,-1062.50,7.54,-4.56,-1.43,181.95,165.30,-35.10,27.6
2026/04/15 14:29:39.81,IMU,59.08,38.57,-989.26,1.62,4.28,-6.83,183.00,164.55,-35.55,27.3
2026/04/15 14:29:39.91,IMU,78.12,42.97,-1013.67,-1.69,-2.72,2.04,180.90,163.95,-35.25,27.4
2026/04/15 14:29:40.01,IMU,44.92,21.48,-994.63,-5.09,0.14,-2.09,181.20,164.55,-35.10,27.3
2026/04/15 14:29:40.11,IMU,77.64,15.63,-995.12,-4.49,6.22,0.18,181.65,165.90,-35.25,27.3
2026/04/15 14:29:40.21,IMU,87.40,21.48,-988.77,-0.61,2.77,-3.90,181.95,165.30,-34.80,27.2
2026/04/15 14:29:40.31,IMU,70.80,16.11,-1010.25,1.21,5.36,-2.95,182.40,166.20,-34.95,27.3
2026/04/15 14:29:40.41,IMU,81.54,27.34,-1015.14,2.56,1.40,-3.01,180.60,165.15,-34.20,27.1
2026/04/15 14:29:40.51,IMU,82.03,7.81,-969.24,2.30,-0.74,-1.66,180.45,165.30,-36.90,27.6
2026/04/15 14:29:40.61,IMU,10.25,-17.58,-1008.79,-1.44,-6.40,-6.39,181.95,166.05,-34.05,27.5
2026/04/15 14:29:40.71,IMU,-23.93,-47.85,-973.14,6.60,0.08,-16.88,182.25,165.30,-35.85,27.5
2026/04/15 14:29:40.81,IMU,-11.72,-12.21,-1075.20,-1.36,1.71,-17.25,183.75,164.85,-34.80,27.3
2026/04/15 14:29:40.91,IMU,4.39,-19.04,-1079.59,4.64,-12.18,-7.51,184.05,167.25,-35.10,27.5
2026/04/15 14:29:41.01,IMU,3.42,-22.46,-1014.65,8.57,-7.60,-5.08,184.35,164.70,-35.70,27.2
2026/04/15 14:29:41.11,IMU,59.57,-33.20,-947.27,4.40,6.47,-4.15,184.35,164.70,-36.45,27.3
2026/04/15 14:29:41.21,IMU,124.51,44.92,-1181.15,-23.98,22.40,-0.73,181.95,163.35,-36.15,27.5
2026/04/15 14:29:41.32,IMU,11.23,-12.21,-984.38,26.24,-5.15,-17.40,184.80,164.85,-36.60,27.5
2026/04/15 14:29:41.42,IMU,17.09,-46.88,-938.96,6.14,-7.70,-21.24,184.65,163.20,-37.50,27.3
2026/04/15 14:29:41.52,IMU,-46.88,-2.93,-1111.82,-4.39,-7.65,-35.35,185.70,164.40,-36.75,27.3
2026/04/15 14:29:41.62,IMU,-9.28,-23.44,-978.52,15.67,-15.16,-55.55,187.05,163.05,-37.35,27.4
2026/04/15 14:29:41.72,IMU,-3.91,-2.44,-958.98,1.03,6.83,-76.11,191.25,162.45,-38.55,27.6
2026/04/15 14:29:41.82,IMU,72.27,77.64,-995.61,1.74,16.18,-98.47,192.15,160.65,-39.15,27.6
2026/04/15 14:29:41.92,IMU,33.69,79.10,-962.89,12.53,5.15,-85.85,194.10,162.30,-38.70,27.5
2026/04/15 14:29:42.02,IMU,124.02,136.23,-968.75,-27.50,1.95,-48.21,196.80,160.20,-37.80,27.5
2026/04/15 14:29:42.12,IMU,47.36,99.12,-963.87,-6.33,3.66,-33.10,196.35,161.25,-37.05,27.5
2026/04/15 14:29:42.22,IMU,81.05,101.07,-1037.11,-9.15,-2.20,-8.72,197.85,162.45,-36.75,27.3
2026/04/15 14:29:42.32,IMU,58.11,104.98,-1031.74,-17.02,-12.55,6.99,198.15,161.55,-36.60,27.6
2026/04/15 14:29:42.42,IMU,-6.35,163.09,-1115.72,-11.45,-12.50,-0.21,198.75,163.80,-35.85,27.5
2026/04/15 14:29:42.52,IMU,89.36,105.96,-1037.60,6.85,13.04,-25.93,199.80,165.45,-36.75,27.2
2026/04/15 14:29:42.62,IMU,135.74,94.73,-1021.00,0.96,4.05,-1.28,199.95,162.60,-35.10,27.3
2026/04/15 14:29:42.72,IMU,24.41,90.33,-1011.23,-1.50,-9.09,7.86,198.75,162.30,-36.90,27.3
2026/04/15 14:29:42.82,IMU,30.76,96.19,-993.65,-1.90,0.05,1.93,199.35,163.20,-35.25,27.5
2026/04/15 14:29:42.92,IMU,64.94,96.19,-984.38,1.76,-1.11,-3.18,199.95,162.30,-36.15,27.2
2026/04/15 14:29:43.02,IMU,50.29,92.29,-989.26,2.10,-4.60,2.68,198.60,163.95,-36.45,27.5
2026/04/15 14:29:43.12,IMU,23.44,98.14,-1005.86,3.07,-1.50,1.51,199.20,163.05,-35.85,27.5
2026/04/15 14:29:43.22,IMU,40.04,105.47,-1042.97,0.31,1.85,0.33,199.95,164.10,-37.65,27.6
2026/04/15 14:29:43.32,IMU,41.50,74.71,-989.75,5.60,1.06,1.71,199.80,162.75,-36.00,27.5
2026/04/15 14:29:43.42,IMU,27.34,68.85,-1005.86,5.04,2.05,-1.66,199.80,162.45,-36.00,27.6
2026/04/15 14:29:43.52,IMU,38.09,82.52,-1015.14,2.10,-2.38,2.60,199.20,160.65,-36.90,27.3
2026/04/15 14:29:43.62,IMU,5.37,80.57,-1017.09,2.49,-5.69,2.46,199.95,162.30,-36.15,27.5
2026/04/15 14:29:43.72,IMU,10.74,72.75,-993.16,2.77,0.56,-5.02,200.40,161.25,-35.25,27.5
2026/04/15 14:29:43.82,IMU,47.36,73.73,-967.77,-1.11,3.39,-0.37,201.75,161.55,-37.35,27.5
2026/04/15 14:29:43.92,IMU,53.71,62.99,-1003.91,-0.18,3.38,0.19,198.75,162.60,-36.60,27.3
2026/04/15 14:29:44.03,IMU,38.09,65.92,-1036.13,1.04,-1.37,0.36,200.40,162.75,-36.00,27.5
2026/04/15 14:29:44.13,IMU,47.85,48.34,-968.26,4.37,2.96,-1.69,200.25,161.85,-36.15,27.6
2026/04/15 14:29:44.23,IMU,76.17,89.36,-1032.71,-2.05,0.50,3.68,200.25,162.60,-36.15,27.3
2026/04/15 14:29:44.33,IMU,33.20,84.96,-1029.79,3.54,0.22,3.30,199.35,162.45,-36.75,27.4
2026/04/15 14:29:44.43,IMU,40.04,62.99,-932.62,-0.08,5.24,-1.06,199.35,162.00,-37.05,27.5
2026/04/15 14:29:44.53,IMU,33.69,88.87,-1051.27,-4.34,1.82,-0.44,199.20,161.85,-35.10,27.6
2026/04/15 14:29:44.63,IMU,61.04,73.73,-1017.09,1.15,-0.15,-2.53,199.50,162.60,-36.90,27.5
2026/04/15 14:29:44.73,IMU,69.82,73.24,-978.03,0.08,0.13,-0.89,199.80,161.70,-35.25,27.0
2026/04/15 14:29:44.83,IMU,45.90,78.12,-998.54,0.50,1.35,0.44,199.50,162.60,-36.15,27.5
2026/04/15 14:29:44.93,IMU,66.89,83.50,-1011.23,1.98,3.53,-5.24,199.20,162.30,-35.85,27.2
2026/04/15 14:29:45.03,IMU,38.09,81.05,-976.07,-0.04,0.97,-1.89,199.20,161.55,-36.15,27.5
2026/04/15 14:29:45.13,IMU,55.18,78.12,-1014.65,1.49,1.84,-1.35,199.35,162.00,-36.45,27.3
2026/04/15 14:29:45.23,IMU,44.43,84.96,-1031.74,3.24,0.76,1.50,199.80,161.70,-36.45,27.4
2026/04/15 14:29:45.33,IMU,72.27,71.29,-991.70,4.71,0.98,10.05,199.80,162.00,-35.70,27.0
2026/04/15 14:29:45.43,IMU,49.80,73.73,-1031.74,-1.44,1.77,7.45,198.30,162.75,-36.75,27.3
2026/04/15 14:29:45.53,IMU,41.02,47.85,-991.21,2.16,0.19,0.21,193.50,160.50,-34.65,27.5
2026/04/15 14:29:45.63,IMU,61.04,56.64,-980.96,-1.62,2.74,-2.54,199.50,161.55,-37.35,27.6
2026/04/15 14:29:45.73,IMU,29.79,50.78,-1025.39,-2.60,0.73,-2.37,199.95,161.55,-36.90,27.7
2026/04/15 14:29:45.83,IMU,51.76,55.66,-1064.94,3.68,2.62,-2.39,199.20,162.30,-37.35,27.3
2026/04/15 14:29:45.93,IMU,58.59,59.57,-1014.16,9.71,-0.04,-5.61,199.35,160.95,-36.75,27.4
2026/04/15 14:29:46.03,IMU,53.22,59.08,-984.38,8.09,4.96,-10.31,199.80,160.20,-37.80,27.3
2026/04/15 14:29:46.13,IMU,37.11,33.69,-968.26,3.34,5.65,-9.18,197.55,159.75,-37.50,27.5
2026/04/15 14:29:46.23,IMU,83.50,43.46,-1060.06,0.40,-1.78,-10.60,199.50,161.10,-37.95,27.5
2026/04/15 14:29:46.33,IMU,37.60,25.88,-985.35,6.04,-4.41,-14.60,198.45,159.15,-37.65,27.5
2026/04/15 14:29:46.43,IMU,63.96,36.62,-956.54,1.43,-1.52,-7.54,201.75,159.15,-37.95,27.5
2026/04/15 14:29:46.53,IMU,43.46,45.41,-982.42,-10.73,-3.92,-9.60,199.20,159.90,-35.55,27.5
2026/04/15 14:29:46.63,IMU,120.12,79.10,-1031.25,1.73,1.14,-7.61,201.45,158.85,-37.95,27.3
2026/04/15 14:29:46.73,IMU,113.77,116.70,-1062.01,-3.33,7.12,3.54,202.65,159.45,-37.80,27.3
2026/04/15 14:29:46.84,IMU,98.63,141.60,-915.53,20.68,2.81,17.71,201.60,160.20,-36.45,27.6
2026/04/15 14:29:46.94,IMU,53.71,140.63,-1086.43,-17.30,10.01,21.67,200.40,158.70,-38.25,27.3
2026/04/15 14:29:47.04,IMU,63.48,122.07,-1149.41,39.60,-10.01,25.04,199.20,159.60,-36.60,27.4
2026/04/15 14:29:47.14,IMU,36.62,-1.46,-835.45,30.17,17.18,22.39,197.70,157.35,-39.75,27.3
2026/04/15 14:29:47.24,IMU,42.48,30.76,-896.97,1.81,-10.72,26.78,196.05,157.05,-76.65,27.3
2026/04/15 14:29:47.34,IMU,8.30,-70.80,-983.89,-9.37,-27.01,6.98,196.35,160.20,-37.80,27.5
2026/04/15 14:29:47.44,IMU,316.41,-23.44,-1064.94,-12.92,18.35,3.89,195.90,160.65,-36.90,27.6
2026/04/15 14:29:47.54,IMU,-93.26,-146.00,-1289.06,-14.00,3.82,5.12,193.05,159.45,-31.35,27.5
2026/04/15 14:29:47.64,IMU,71.29,-235.35,-650.88,99.82,15.42,-48.78,196.35,160.95,-38.25,27.2
2026/04/15 14:29:47.74,IMU,150.39,-78.12,-769.04,49.14,28.78,-62.00,199.50,157.65,-38.70,27.6
2026/04/15 14:29:47.84,IMU,328.13,143.07,-1624.51,-59.94,-41.45,22.80,204.15,164.40,-30.60,27.2
2026/04/15 14:29:47.94,IMU,42.48,13.18,-1307.62,-21.85,-36.26,35.49,205.20,168.15,-27.75,27.5
2026/04/15 14:29:48.04,IMU,46.88,-133.79,-714.36,27.11,2.50,-10.80,207.45,168.45,-26.70,27.5
2026/04/15 14:29:48.14,IMU,173.83,62.01,-1109.38,-22.66,13.04,10.80,207.30,166.35,-28.20,27.4
2026/04/15 14:29:48.24,IMU,6.35,4.39,-985.84,12.58,-5.11,14.18,206.85,166.05,-27.15,27.3
2026/04/15 14:29:48.34,IMU,119.63,9.77,-1001.46,-0.37,-4.61,24.95,205.95,166.65,-27.75,27.3
2026/04/15 14:29:48.44,IMU,-71.78,12.21,-1074.22,17.18,-22.26,2.72,207.30,168.00,-29.40,27.5
2026/04/15 14:29:48.54,IMU,51.27,-56.15,-884.28,8.26,0.76,-28.69,207.45,165.45,-28.50,27.5
2026/04/15 14:29:48.64,IMU,17.58,-92.77,-1048.83,-7.87,21.84,-27.75,207.60,164.85,-27.90,27.5
2026/04/15 14:29:48.74,IMU,278.32,-37.60,-883.30,42.78,7.22,-0.04,207.45,165.15,-29.10,27.6
2026/04/15 14:29:48.84,IMU,113.28,12.21,-842.77,-3.47,-19.08,41.35,206.70,163.20,-30.90,27.3
2026/04/15 14:29:48.94,IMU,-305.66,-48.34,-1078.13,-20.14,-38.55,-3.40,208.20,165.15,-28.80,27.3
2026/04/15 14:29:49.04,IMU,234.38,-108.89,-966.80,-23.40,23.51,-43.87,208.05,165.60,-28.20,27.3
2026/04/15 14:29:49.14,IMU,125.00,-45.41,-1162.11,26.80,4.64,-4.08,209.10,165.30,-28.20,27.5
2026/04/15 14:29:49.24,IMU,85.45,-48.34,-831.05,22.89,-7.27,35.62,208.50,163.20,-29.55,27.4
2026/04/15 14:29:49.34,IMU,-59.57,13.67,-1003.42,-15.53,-30.11,55.00,208.20,163.95,-29.55,27.5
2026/04/15 14:29:49.44,IMU,-78.61,-74.22,-960.94,13.85,1.20,1.24,206.85,163.05,-26.85,27.5
2026/04/15 14:29:49.54,IMU,-4.39,-96.68,-1044.43,-11.38,17.65,-2.42,208.50,163.50,-27.75,27.3
2026/04/15 14:29:49.65,IMU,-66.41,-67.87,-1032.71,-12.32,7.61,0.85,207.60,163.80,-28.95,27.5
2026/04/15 14:29:49.75,IMU,-63.96,-113.28,-1090.82,0.60,3.48,-9.05,207.60,164.55,-27.90,27.3
2026/04/15 14:29:49.85,IMU,-32.23,-60.06,-1055.18,25.29,9.27,-22.82,208.80,164.85,-29.40,27.2
2026/04/15 14:29:49.95,IMU,66.41,-87.40,-803.71,8.66,-9.34,-25.59,207.60,163.05,-28.65,27.5
2026/04/15 14:29:50.05,IMU,29.30,-72.27,-954.59,-7.60,-7.93,-25.86,209.10,164.55,-28.95,27.2
2026/04/15 14:29:50.15,IMU,149.41,-22.95,-1062.99,-7.24,-1.23,-11.15,210.75,164.40,-27.75,27.3
2026/04/15 14:29:50.25,IMU,40.53,-16.11,-973.14,-10.27,-2.15,-4.66,211.65,164.10,-26.40,27.2
2026/04/15 14:29:50.35,IMU,14.16,-29.79,-1062.99,-24.05,2.98,-3.74,211.20,164.70,-28.05,27.6
2026/04/15 14:29:50.45,IMU,2.93,-7.32,-1098.63,-4.79,-3.15,0.43,210.00,168.15,-27.75,27.3
2026/04/15 14:29:50.55,IMU,21.00,10.25,-967.77,1.98,-1.15,5.93,211.65,166.80,-26.10,27.5
2026/04/15 14:29:50.65,IMU,30.76,58.11,-1006.35,-5.19,9.89,-4.18,211.65,167.55,-25.80,27.5
2026/04/15 14:29:50.75,IMU,68.85,66.89,-1010.74,-4.39,5.04,0.27,210.60,167.55,-27.60,27.6
2026/04/15 14:29:50.85,IMU,35.64,81.05,-1014.65,-1.89,0.76,3.22,208.80,168.00,-26.40,27.3
2026/04/15 14:29:50.95,IMU,59.57,51.27,-1034.18,-4.02,1.64,3.89,210.00,168.45,-26.70,27.3
2026/04/15 14:29:51.05,IMU,76.66,54.20,-1086.43,-2.63,2.85,4.62,210.15,169.50,-25.80,27.5
2026/04/15 14:29:51.15,IMU,56.15,24.41,-1003.91,7.98,-1.06,0.23,208.95,167.70,-27.00,27.5
2026/04/15 14:29:51.25,IMU,35.16,27.83,-971.68,-1.05,-0.12,-0.62,210.15,167.25,-26.40,27.1
2026/04/15 14:29:51.35,IMU,45.90,61.52,-1034.18,6.03,-0.02,-6.59,210.45,166.95,-25.95,27.6
2026/04/15 14:29:51.45,IMU,60.06,37.60,-965.33,2.92,-3.52,-2.44,210.45,167.70,-27.00,27.3
2026/04/15 14:29:51.55,IMU,46.88,-0.49,-959.96,1.52,-6.44,-4.90,209.85,168.00,-28.20,27.6
2026/04/15 14:29:51.65,IMU,14.65,60.06,-1124.51,-9.11,1.69,-3.95,209.10,167.25,-26.40,27.2
2026/04/15 14:29:51.75,IMU,24.90,-3.42,-964.84,11.03,3.02,-7.31,211.20,167.70,-26.25,27.5
2026/04/15 14:29:51.85,IMU,13.67,25.88,-1042.48,4.27,-2.83,-2.18,210.90,166.05,-26.40,27.3
2026/04/15 14:29:51.95,IMU,35.16,26.86,-1006.84,6.78,7.27,-6.54,210.90,165.60,-26.40,27.6
2026/04/15 14:29:52.05,IMU,24.41,0.49,-1007.81,1.90,-0.56,3.58,210.45,164.70,-26.25,27.5
2026/04/15 14:29:52.15,IMU,6.35,1.95,-1000.49,-3.87,1.53,-6.77,210.15,165.30,-27.15,27.5
2026/04/15 14:29:52.25,IMU,49.80,10.25,-998.05,-1.74,-0.11,-4.75,210.45,165.90,-26.70,27.4
2026/04/15 14:29:52.35,IMU,66.89,3.42,-1004.88,-4.71,-0.10,-1.55,212.10,166.35,-26.85,27.3
2026/04/15 14:29:52.46,IMU,38.09,9.28,-1046.39,1.61,-1.46,-1.58,211.35,165.30,-25.35,27.5
2026/04/15 14:29:52.56,IMU,44.43,8.79,-1013.67,2.13,2.60,1.99,211.95,166.20,-26.70,27.4
2026/04/15 14:29:52.66,IMU,19.04,44.43,-1033.69,1.89,-2.49,-1.15,209.10,164.85,-26.85,27.6
2026/04/15 14:29:52.76,IMU,44.43,35.64,-1007.32,-4.77,-1.92,1.11,210.90,165.30,-27.15,27.3
2026/04/15 14:29:52.86,IMU,29.79,15.14,-1013.18,-4.56,1.37,1.29,211.20,166.20,-26.70,27.5
2026/04/15 14:29:52.96,IMU,37.60,16.11,-1016.11,0.22,1.46,4.28,210.15,167.25,-26.40,27.5
2026/04/15 14:29:53.06,IMU,30.27,23.44,-1024.41,2.96,-0.65,0.27,210.15,167.25,-27.60,27.6
2026/04/15 14:29:53.16,IMU,23.44,12.21,-1009.77,-3.63,1.21,-1.27,211.95,165.45,-27.75,27.5
2026/04/15 14:29:53.26,IMU,51.76,17.58,-1013.67,-0.08,0.17,-1.98,210.15,166.80,-27.15,27.5
2026/04/15 14:29:53.36,IMU,60.06,19.04,-995.12,-1.60,2.18,1.02,210.60,165.60,-27.15,27.2
2026/04/15 14:29:53.46,IMU,36.13,12.70,-988.77,2.49,1.78,2.98,210.60,167.55,-27.60,27.5
2026/04/15 14:29:53.56,IMU,6.84,26.37,-1007.32,-0.60,0.08,3.63,209.85,166.05,-27.60,27.6
2026/04/15 14:29:53.66,IMU,29.79,33.20,-1022.46,-1.05,0.35,0.18,208.35,166.35,-26.40,27.5
2026/04/15 14:29:53.76,IMU,35.16,43.46,-1027.34,-2.83,-1.90,2.07,210.00,166.20,-27.00,27.3
2026/04/15 14:29:53.86,IMU,65.92,35.16,-1007.32,-0.51,-1.05,-0.85,210.75,165.90,-27.30,27.5
2026/04/15 14:29:53.96,IMU,65.92,26.37,-983.89,0.28,-0.47,2.56,209.85,166.05,-26.40,27.1
2026/04/15 14:29:54.06,IMU,54.69,29.79,-995.61,-1.11,-0.27,2.37,210.15,165.60,-26.40,27.3
2026/04/15 14:29:54.16,IMU,29.79,18.55,-1008.79,0.78,-1.23,4.48,209.55,166.80,-28.20,27.5
2026/04/15 14:29:54.26,IMU,29.30,30.76,-1014.65,0.31,-2.30,0.14,209.10,168.00,-27.15,27.6
2026/04/15 14:29:54.36,IMU,31.25,30.76,-1027.34,-0.47,-0.66,3.30,209.10,166.35,-26.85,27.7
2026/04/15 14:29:54.46,IMU,39.55,28.81,-1021.97,1.20,-3.34,-0.28,210.00,167.70,-25.50,27.3
2026/04/15 14:29:54.56,IMU,32.71,20.02,-1021.97,0.89,-1.27,-1.23,210.75,166.95,-27.75,27.4
2026/04/15 14:29:54.66,IMU,15.63,28.81,-1027.83,-1.57,0.00,-4.68,207.15,166.65,-23.70,27.6
2026/04/15 14:29:54.76,IMU,29.79,31.25,-1007.81,0.12,-0.81,-3.51,211.95,166.65,-28.50,27.6
2026/04/15 14:29:54.86,IMU,50.29,17.58,-1013.18,-2.63,-1.12,-3.15,209.85,168.00,-27.60,27.5
2026/04/15 14:29:54.96,IMU,41.02,32.23,-1027.34,1.59,-0.63,-4.53,210.60,166.80,-27.15,27.1
2026/04/15 14:29:55.06,IMU,25.88,29.79,-1031.25,1.01,-3.24,-4.76,211.20,166.20,-27.00,27.4
2026/04/15 14:29:55.16,IMU,33.20,34.67,-1007.32,-1.89,1.20,-3.94,210.15,166.35,-27.15,27.3
2026/04/15 14:29:55.27,IMU,26.37,26.37,-1007.81,-1.62,0.60,-1.89,209.55,167.25,-26.85,27.5
2026/04/15 14:29:55.37,IMU,49.32,19.04,-992.68,-3.36,2.55,-3.03,210.45,165.45,-25.95,27.2
2026/04/15 14:29:55.47,IMU,65.92,30.27,-991.21,1.86,0.90,1.83,212.25,166.95,-27.00,27.6
2026/04/15 14:29:55.57,IMU,36.13,35.16,-1008.30,1.70,-2.69,1.39,210.45,166.95,-25.95,27.3
2026/04/15 14:29:55.67,IMU,36.13,32.71,-1021.48,-0.05,-2.83,0.45,210.15,164.10,-24.00,27.3
2026/04/15 14:29:55.77,IMU,34.67,19.04,-1005.86,1.35,0.11,4.81,211.20,166.65,-27.30,27.5
2026/04/15 14:29:55.87,IMU,36.13,35.16,-1009.28,2.66,2.91,3.48,211.65,166.80,-27.15,27.5
2026/04/15 14:29:55.97,IMU,10.74,31.25,-1004.88,1.07,1.07,2.89,210.60,166.05,-28.95,27.3
2026/04/15 14:29:56.07,IMU,17.58,30.76,-987.30,0.33,-0.73,0.08,210.15,167.25,-27.15,27.5
2026/04/15 14:29:56.17,IMU,24.41,12.21,-1025.88,4.53,3.34,0.72,210.90,167.25,-27.60,27.5
2026/04/15 14:29:56.27,IMU,57.62,4.88,-1027.83,11.18,-2.63,-1.70,210.75,167.40,-27.75,27.5
2026/04/15 14:29:56.37,IMU,36.13,12.70,-988.28,5.15,-0.22,1.53,211.20,165.15,-28.50,27.3
2026/04/15 14:29:56.47,IMU,19.53,-14.16,-1005.86,0.44,-0.39,2.83,212.40,165.60,-25.80,27.6
2026/04/15 14:29:56.57,IMU,19.04,5.37,-959.47,-5.09,1.46,0.96,211.65,166.05,-27.60,27.3
2026/04/15 14:29:56.67,IMU,0.98,-35.64,-954.10,-14.56,0.33,-2.12,210.60,165.30,-26.10,27.0
2026/04/15 14:29:56.77,IMU,54.69,-1.46,-1100.10,-6.79,6.18,-6.15,211.65,167.25,-25.80,27.5
2026/04/15 14:29:56.87,IMU,29.79,36.62,-1058.59,9.97,-8.05,-8.36,211.65,167.25,-26.10,27.5
2026/04/15 14:29:56.97,IMU,-40.04,41.99,-1062.50,11.12,4.98,-13.63,211.50,166.20,-26.25,27.3
2026/04/15 14:29:57.07,IMU,42.48,51.76,-1031.25,17.24,1.05,-13.49,210.60,164.10,-28.95,27.5
2026/04/15 14:29:57.17,IMU,35.16,43.46,-990.23,8.81,0.87,-6.70,211.95,164.40,-27.75,27.5
2026/04/15 14:29:57.27,IMU,95.70,23.93,-977.05,5.48,3.27,-9.08,211.20,163.95,-28.05,27.6
2026/04/15 14:29:57.37,IMU,114.75,-43.95,-939.45,-4.11,-1.05,6.37,212.10,162.30,-28.65,27.5
2026/04/15 14:29:57.47,IMU,-3.42,-50.29,-1042.97,-12.76,-7.60,10.69,212.40,162.30,-28.20,27.4
2026/04/15 14:29:57.57,IMU,-11.72,-62.01,-1067.38,8.09,-6.09,4.20,213.00,162.75,-26.70,27.6
2026/04/15 14:29:57.67,IMU,-14.16,-73.73,-927.25,2.72,-8.31,3.28,212.10,162.60,-26.40,27.5
2026/04/15 14:29:57.77,IMU,-61.04,-34.67,-1164.55,-11.60,-4.87,0.71,213.30,163.20,-28.05,27.5
2026/04/15 14:29:57.87,IMU,37.60,-34.18,-1004.88,20.21,-2.63,-1.49,212.55,162.75,-26.25,27.3
2026/04/15 14:29:57.97,IMU,-44.43,-9.28,-1005.86,1.27,-4.51,1.40,211.65,162.60,-27.60,27.5
2026/04/15 14:29:58.08,IMU,1.95,-36.62,-872.56,14.82,2.88,-7.12,213.75,161.25,-27.30,27.5
2026/04/15 14:29:58.18,IMU,-99.12,-17.58,-1118.65,-20.60,-8.66,-7.11,213.30,162.00,-27.00,27.3
2026/04/15 14:29:58.28,IMU,42.97,-41.99,-1038.09,10.57,19.03,-17.91,215.85,162.00,-28.05,27.5
2026/04/15 14:29:58.38,IMU,-10.74,-48.34,-1094.73,-0.78,-4.82,-0.21,214.05,161.70,-29.10,27.5
2026/04/15 14:29:58.48,IMU,45.90,-14.65,-1008.30,10.33,2.73,4.92,212.85,162.30,-26.10,27.5
2026/04/15 14:29:58.58,IMU,-9.28,-57.62,-961.43,-4.58,3.40,8.05,212.55,162.00,-27.00,27.3
2026/04/15 14:29:58.68,IMU,-28.81,-89.84,-1025.39,-24.96,4.21,13.08,213.90,161.10,-27.15,27.6
2026/04/15 14:29:58.78,IMU,-59.57,10.25,-990.72,-11.53,10.50,3.19,211.35,163.80,-26.85,27.6
2026/04/15 14:29:58.88,IMU,-159.18,-55.66,-871.09,-0.02,12.85,-27.01,211.95,164.70,-28.80,27.4
2026/04/15 14:29:58.98,IMU,-43.95,-6.35,-933.59,-21.95,5.07,-35.54,213.00,163.95,-27.75,27.3
2026/04/15 14:29:59.08,IMU,47.36,105.47,-1269.04,-26.41,11.29,-34.23,215.25,167.40,-25.95,27.5
2026/04/15 14:29:59.18,IMU,123.54,82.52,-1167.97,18.01,-3.26,-11.49,214.50,165.45,-26.25,27.5
2026/04/15 14:29:59.28,IMU,47.85,10.25,-876.95,16.36,1.98,16.31,213.75,164.40,-27.75,27.6
2026/04/15 14:29:59.38,IMU,49.32,27.34,-972.66,3.31,12.58,30.67,213.90,163.35,-26.40,27.5
2026/04/15 14:29:59.48,IMU,69.82,64.45,-1032.23,-1.13,-0.50,55.46,211.95,163.20,-27.75,27.5
2026/04/15 14:29:59.58,IMU,32.71,101.07,-904.30,10.01,-18.49,73.97,210.60,165.60,-27.15,27.5
2026/04/15 14:29:59.68,IMU,-54.20,23.93,-888.18,-7.83,-19.25,58.06,211.20,166.65,-25.95,27.0
2026/04/15 14:29:59.78,IMU,80.08,-15.63,-990.72,-8.85,17.02,33.53,210.15,167.55,-26.85,27.3
2026/04/15 14:29:59.88,IMU,86.91,-50.29,-1071.29,-1.70,5.86,29.95,209.25,169.65,-25.50,27.5
2026/04/15 14:29:59.98,IMU,57.13,-98.14,-959.47,-8.30,0.37,34.36,207.30,169.05,-27.15,27.5
2026/04/15 14:30:00.08,IMU,-12.70,-30.76,-1042.48,-7.13,-6.19,25.38,205.20,170.85,-26.25,27.3
2026/04/15 14:30:00.18,IMU,30.27,60.06,-1096.19,-4.72,6.81,20.39,205.20,171.15,-24.90,27.3
2026/04/15 14:30:00.28,IMU,-11.23,23.44,-940.43,15.60,3.33,11.42,205.20,170.10,-25.50,27.1
2026/04/15 14:30:00.38,IMU,-17.09,-7.32,-922.85,-8.63,-13.37,1.06,204.30,170.25,-25.80,27.5
2026/04/15 14:30:00.48,IMU,-8.30,4.39,-1075.68,-16.70,3.87,-1.29,204.15,170.85,-25.95,27.5
2026/04/15 14:30:00.58,IMU,33.20,57.62,-1113.28,7.30,-4.76,0.41,204.30,169.50,-24.60,27.6
2026/04/15 14:30:00.68,IMU,10.25,45.41,-958.01,6.60,1.75,-2.17,205.95,170.40,-25.95,27.0
2026/04/15 14:30:00.78,IMU,-1.46,33.20,-1007.32,4.05,0.72,-6.44,205.50,170.25,-26.10,27.4
2026/04/15 14:30:00.89,IMU,70.80,34.18,-1015.63,5.82,6.42,-3.92,204.30,169.50,-26.10,27.3
2026/04/15 14:30:00.99,IMU,25.39,11.23,-957.52,3.34,-6.93,6.09,205.20,169.65,-25.95,27.3
2026/04/15 14:30:01.09,IMU,7.81,-13.18,-980.47,-3.38,-0.24,-1.15,204.90,168.90,-25.95,27.0
2026/04/15 14:30:01.19,IMU,-19.04,16.11,-1055.18,0.10,-2.08,-3.95,204.90,171.60,-25.20,27.3
2026/04/15 14:30:01.29,IMU,-32.23,0.00,-948.24,0.44,5.33,-13.76,205.80,169.05,-26.10,27.1
2026/04/15 14:30:01.39,IMU,-35.16,-12.21,-1064.94,-2.92,8.53,-12.45,207.15,170.10,-25.95,27.5
2026/04/15 14:30:01.49,IMU,-22.95,2.44,-1052.25,5.11,2.24,-13.42,206.40,171.15,-26.25,27.3
2026/04/15 14:30:01.59,IMU,21.48,-29.79,-979.49,8.79,2.82,-5.27,205.50,169.50,-25.80,27.5
2026/04/15 14:30:01.69,IMU,22.46,-10.74,-968.26,1.54,-2.30,1.95,206.55,169.05,-26.85,27.5
2026/04/15 14:30:01.79,IMU,-21.97,-39.55,-932.13,-8.69,4.63,7.37,206.40,170.40,-25.95,27.3
2026/04/15 14:30:01.89,IMU,-6.84,-5.37,-1025.88,-7.19,13.75,7.51,206.70,171.15,-26.70,27.3
2026/04/15 14:30:01.99,IMU,52.25,-3.91,-942.38,-4.69,12.79,18.76,204.15,170.85,-25.50,27.3
2026/04/15 14:30:02.09,IMU,186.04,86.91,-879.88,-53.98,20.60,45.95,202.05,171.00,-25.80,27.5
2026/04/15 14:30:02.19,IMU,37.60,75.20,-952.64,-39.46,6.92,35.17,200.10,173.85,-24.45,27.6
2026/04/15 14:30:02.29,IMU,131.35,75.68,-858.89,4.37,-16.95,-15.24,200.40,175.65,-21.90,27.3
2026/04/15 14:30:02.39,IMU,163.57,22.46,-846.68,22.10,51.71,-64.77,201.75,175.50,-24.00,27.3
2026/04/15 14:30:02.49,IMU,201.66,157.71,-677.73,36.53,7.18,-21.77,201.75,172.50,-24.60,27.6
2026/04/15 14:30:02.59,IMU,165.53,184.08,-653.81,32.29,-10.11,-5.01,202.35,170.10,-27.30,27.5
2026/04/15 14:30:02.69,IMU,146.48,75.20,-967.77,29.92,-4.19,2.82,201.45,169.50,-28.20,27.5
2026/04/15 14:30:02.79,IMU,83.98,-33.69,-1245.61,-13.09,3.37,-6.84,198.60,168.90,-24.90,27.1
2026/04/15 14:30:02.89,IMU,221.19,-49.32,-1408.69,0.84,-4.50,-10.62,201.00,172.05,-26.10,27.5
2026/04/15 14:30:02.99,IMU,284.18,-16.60,-1186.04,75.27,-29.31,-15.71,200.40,168.45,-28.50,27.5
2026/04/15 14:30:03.09,IMU,247.07,82.52,-482.91,4.37,15.49,12.53,199.35,163.50,-30.30,27.5
2026/04/15 14:30:03.19,IMU,78.61,142.09,-937.99,-32.36,-21.55,-4.62,201.00,168.30,-26.85,27.2
2026/04/15 14:30:03.29,IMU,-23.44,-193.85,-881.84,-46.27,-9.01,-33.42,203.10,170.40,-25.50,27.5
2026/04/15 14:30:03.39,IMU,392.58,136.72,-1599.12,13.98,-18.74,-14.14,203.85,175.65,-23.70,27.3
2026/04/15 14:30:03.49,IMU,154.79,181.15,-1102.54,27.84,-17.28,18.93,205.20,174.15,-23.70,27.5
2026/04/15 14:30:03.59,IMU,14.16,112.79,-1020.02,-5.45,-14.83,11.50,205.80,172.05,-25.35,27.3
2026/04/15 14:30:03.70,IMU,40.53,64.45,-970.21,8.98,23.79,-9.98,207.45,172.65,-26.25,27.5
2026/04/15 14:30:03.80,IMU,34.18,24.41,-962.89,-10.37,8.83,-6.12,201.90,170.10,-20.85,27.3
2026/04/15 14:30:03.90,IMU,54.69,108.40,-1121.09,-10.37,-2.41,-1.45,205.95,172.65,-23.70,27.5
2026/04/15 14:30:04.00,IMU,48.83,82.52,-956.05,3.52,-4.52,-11.34,207.15,172.65,-24.45,27.5
2026/04/15 14:30:04.10,IMU,86.91,69.34,-1011.23,-2.56,22.93,-19.76,207.90,173.40,-24.90,27.3
2026/04/15 14:30:04.20,IMU,195.31,84.47,-1054.20,-6.97,10.37,-7.37,206.55,172.50,-24.30,27.6
2026/04/15 14:30:04.30,IMU,140.63,83.01,-1118.16,-5.56,11.35,4.71,206.85,172.80,-24.00,27.3
2026/04/15 14:30:04.40,IMU,100.10,47.85,-989.26,-4.21,-0.47,7.94,205.50,172.80,-25.35,27.5
2026/04/15 14:30:04.50,IMU,133.30,72.27,-954.10,-0.47,3.38,3.93,205.95,173.10,-24.90,27.7
2026/04/15 14:30:04.60,IMU,121.58,71.78,-953.13,2.35,4.52,5.37,205.50,173.25,-24.30,27.4
2026/04/15 14:30:04.70,IMU,149.90,104.49,-1058.11,-9.15,12.53,4.58,204.00,174.45,-24.00,27.2
2026/04/15 14:30:04.81,IMU,124.51,98.14,-941.41,6.73,-5.91,0.05,205.20,173.40,-24.45,27.2
2026/04/15 14:30:04.91,IMU,145.02,83.01,-943.36,2.10,2.30,-8.27,203.85,172.65,-24.15,27.6
2026/04/15 14:30:05.01,IMU,160.64,115.23,-1026.86,-5.27,7.73,-4.52,205.50,172.05,-25.05,27.3
2026/04/15 14:30:05.11,IMU,184.08,117.68,-1026.86,-5.12,-4.00,-1.15,203.55,173.70,-24.30,27.5
2026/04/15 14:30:05.21,IMU,162.60,102.54,-970.21,-1.27,-4.11,-3.00,204.90,173.85,-24.45,27.6
2026/04/15 14:30:05.31,IMU,209.47,86.91,-952.64,-0.42,4.82,-6.02,204.15,173.10,-24.15,27.5
2026/04/15 14:30:05.41,IMU,160.16,93.26,-992.19,1.87,-1.16,-0.66,204.90,173.40,-23.10,27.5
2026/04/15 14:30:05.51,IMU,165.04,107.42,-1007.81,1.98,-2.37,-1.94,204.90,172.65,-24.15,27.5
2026/04/15 14:30:05.61,IMU,194.82,121.58,-998.05,2.08,0.92,-1.36,203.25,172.50,-23.55,27.3
2026/04/15 14:30:05.71,IMU,173.34,129.39,-1010.74,2.02,1.73,-1.38,204.45,172.35,-24.90,27.5
2026/04/15 14:30:05.81,IMU,180.66,95.21,-981.45,2.40,1.27,-2.02,204.15,174.15,-23.40,27.6
2026/04/15 14:30:05.92,IMU,193.36,94.24,-969.73,1.01,0.33,0.04,204.00,173.70,-25.80,27.5
2026/04/15 14:30:06.02,IMU,182.13,96.19,-1005.37,1.43,-0.05,0.55,204.45,172.35,-24.15,27.2
2026/04/15 14:30:06.12,IMU,169.43,88.38,-968.75,2.54,0.89,-2.16,203.55,172.05,-23.55,27.3
2026/04/15 14:30:06.22,IMU,205.57,81.54,-988.77,-0.47,2.43,-2.87,203.85,171.15,-24.15,27.5
2026/04/15 14:30:06.32,IMU,174.32,95.21,-1012.21,3.28,-3.19,0.02,205.05,173.25,-24.00,27.3
2026/04/15 14:30:06.42,IMU,179.69,91.31,-995.12,1.16,2.31,-3.46,204.75,171.00,-24.30,27.3
2026/04/15 14:30:06.52,IMU,209.96,73.73,-946.29,-0.71,4.02,-4.36,205.65,171.90,-25.95,27.5
2026/04/15 14:30:06.62,IMU,176.76,83.01,-994.63,4.31,0.78,1.06,204.00,171.00,-25.80,27.5
2026/04/15 14:30:06.72,IMU,198.24,93.26,-1015.63,2.65,1.32,0.95,204.45,173.10,-25.50,27.3
2026/04/15 14:30:06.82,IMU,175.78,79.10,-990.72,0.15,-0.36,3.42,204.15,172.35,-25.20,27.3
2026/04/15 14:30:06.92,IMU,208.50,97.66,-1003.42,0.32,-1.43,2.02,204.45,171.90,-25.20,27.1
2026/04/15 14:30:07.02,IMU,148.93,67.87,-950.68,-0.21,-0.34,2.44,203.55,172.50,-24.30,27.2
2026/04/15 14:30:07.12,IMU,154.79,16.11,-955.08,-0.17,2.84,-2.40,204.30,170.55,-25.05,27.6
2026/04/15 14:30:07.22,IMU,179.20,21.97,-1028.81,1.45,-0.24,-0.64,204.75,172.80,-24.00,27.6
2026/04/15 14:30:07.32,IMU,163.09,89.36,-1068.36,21.44,6.70,-4.69,203.25,171.00,-25.80,27.3
2026/04/15 14:30:07.42,IMU,148.93,76.66,-1018.55,8.04,15.02,-6.74,204.30,170.25,-26.10,27.5
2026/04/15 14:30:07.52,IMU,283.20,61.04,-949.71,12.05,18.28,-0.02,201.15,168.90,-25.50,27.5
2026/04/15 14:30:07.62,IMU,203.13,33.20,-1090.82,7.61,14.35,9.75,200.10,169.65,-26.70,27.5
2026/04/15 14:30:07.72,IMU,392.09,-26.86,-838.87,13.53,26.02,28.46,197.85,168.15,-27.75,27.5
2026/04/15 14:30:07.82,IMU,303.22,-46.88,-1021.48,-4.55,6.47,28.20,195.30,166.95,-29.10,27.4
2026/04/15 14:30:07.92,IMU,418.95,-56.15,-917.48,-34.34,-25.40,35.05,195.15,167.25,-29.70,27.5
2026/04/15 14:30:08.02,IMU,396.97,-7.81,-1050.29,-9.23,-6.09,33.12,196.95,171.30,-26.10,27.5
2026/04/15 14:30:08.12,IMU,300.78,-42.48,-972.66,16.89,5.02,3.66,190.20,157.95,-30.60,27.5
2026/04/15 14:30:08.22,IMU,402.34,-62.01,-897.95,10.07,30.51,0.60,185.25,148.95,-34.80,27.4
2026/04/15 14:30:08.32,IMU,349.12,-145.51,-435.06,-16.82,-38.67,22.12,172.20,142.35,-27.00,27.5
2026/04/15 14:30:08.42,IMU,333.01,-34.18,-649.41,-53.61,92.82,-43.01,165.00,133.05,40.20,27.5
2026/04/15 14:30:08.52,IMU,645.51,123.05,-1143.55,-64.30,77.17,-23.60,121.20,144.45,202.65,27.3
2026/04/15 14:30:08.62,IMU,885.74,232.42,-1020.02,42.52,25.05,-3.87,20.70,47.55,89.25,27.5
2026/04/15 14:30:08.73,IMU,454.10,39.06,-661.62,79.15,-24.71,86.03,-3.00,16.05,19.95,27.5
2026/04/15 14:30:08.83,IMU,746.58,73.24,-674.32,39.47,6.00,-0.09,-4.95,10.80,9.90,27.5
2026/04/15 14:30:08.93,IMU,635.74,-72.75,-798.34,-1.80,20.71,16.80,-6.00,8.85,6.60,27.5
2026/04/15 14:30:09.03,IMU,791.99,-23.44,-754.88,21.60,-33.44,21.50,-7.50,9.30,4.05,27.2
2026/04/15 14:30:09.13,IMU,547.85,-109.86,-898.93,-7.93,-93.79,44.87,-5.85,6.45,2.40,27.5
2026/04/15 14:30:09.23,IMU,510.74,-79.10,-535.64,-51.76,-18.73,-24.12,-2.70,6.60,1.95,27.5
2026/04/15 14:30:09.33,IMU,275.88,-125.00,-978.03,64.92,-22.88,-5.84,-1.80,8.25,2.10,27.5
2026/04/15 14:30:09.43,IMU,678.22,-93.75,-802.73,-25.15,-78.33,17.59,-0.45,6.90,-0.90,27.5
2026/04/15 14:30:09.53,IMU,210.45,-182.13,-1132.32,27.87,-13.40,-41.89,2.85,7.95,0.60,27.5
2026/04/15 14:30:09.63,IMU,316.89,-194.82,-920.90,5.38,-18.48,-3.27,6.00,6.15,-1.20,27.4
2026/04/15 14:30:09.73,IMU,233.40,-173.83,-886.72,13.24,0.02,17.36,6.30,6.15,-1.20,27.4
2026/04/15 14:30:09.83,IMU,231.93,-138.18,-859.86,-16.09,28.40,17.04,6.90,4.50,-1.35,27.6
2026/04/15 14:30:09.93,IMU,327.64,-102.05,-984.86,-15.89,24.18,22.82,1.80,4.50,0.00,27.5
2026/04/15 14:30:10.03,IMU,385.25,-119.63,-959.96,10.31,-75.15,55.04,-3.60,4.50,3.60,27.1
2026/04/15 14:30:10.13,IMU,18.55,-189.94,-913.09,-25.37,-4.63,0.11,-1.20,1.20,15.60,27.5
2026/04/15 14:30:10.23,IMU,42.97,-148.93,-1008.30,9.60,-24.51,16.90,-1.95,6.15,39.75,27.2
2026/04/15 14:30:10.33,IMU,-50.78,-154.30,-1093.75,-22.55,-42.27,-20.03,8.70,36.00,110.40,27.5
2026/04/15 14:30:10.43,IMU,140.14,5.86,-1011.72,-13.11,-1.95,-5.50,57.45,97.65,128.55,27.5
2026/04/15 14:30:10.53,IMU,-30.76,-83.98,-1089.36,-2.85,16.24,12.41,130.95,105.15,88.05,27.3
2026/04/15 14:30:10.63,IMU,-133.79,-116.70,-1031.74,-8.57,1.73,3.69,134.85,87.45,30.75,27.5
2026/04/15 14:30:10.73,IMU,-69.34,11.23,-369.14,-35.91,33.66,5.57,146.70,105.90,10.80,27.6
2026/04/15 14:30:10.83,IMU,239.75,67.87,-976.07,39.70,-17.57,44.79,188.70,166.95,-7.80,27.0
2026/04/15 14:30:10.93,IMU,174.32,-21.00,-920.41,2.82,-20.62,-7.71,199.80,178.05,-10.05,27.5
2026/04/15 14:30:11.03,IMU,216.31,93.75,-939.94,-0.44,-26.63,26.78,201.15,176.10,-9.30,27.5
2026/04/15 14:30:11.13,IMU,96.68,-43.95,-1081.54,18.69,-9.98,4.48,199.35,175.35,-11.85,27.2
2026/04/15 14:30:11.23,IMU,-154.30,-127.44,-1044.92,15.28,-25.90,8.02,204.90,163.20,1.35,27.1
2026/04/15 14:30:11.33,IMU,-94.24,-67.38,-1076.66,15.96,-10.47,0.76,203.55,156.15,0.45,27.4
2026/04/15 14:30:11.43,IMU,-60.06,-63.48,-1094.24,15.44,11.21,1.96,201.45,150.90,2.25,27.3
2026/04/15 14:30:11.53,IMU,-159.18,-42.48,-1032.23,18.72,62.18,15.38,195.30,138.15,1.05,27.5
2026/04/15 14:30:11.64,IMU,125.98,-228.52,-856.93,-2.98,-30.26,-23.11,186.60,128.10,-3.30,27.2
2026/04/15 14:30:11.74,IMU,6.35,-126.46,-1021.00,-14.57,-5.39,-2.42,189.60,130.80,-1.95,27.3
2026/04/15 14:30:11.84,IMU,23.44,-82.03,-1051.76,-14.88,11.94,2.33,189.00,129.45,-1.05,27.3
