Timestamp,Sensor,AccX,AccY,AccZ,GyrX,GyrY,GyrZ,MagX,MagY,MagZ,Temp
2026/04/15 14:29:14.00,IMU,27.34,-18.55,-1013.67,-3.03,2.91,2.86,125.25,86.70,-25.80,30.0
2026/04/15 14:29:14.10,IMU,27.83,-4.88,-1028.32,1.42,-2.33,4.49,125.25,87.75,-25.35,29.6
2026/04/15 14:29:14.20,IMU,-7.81,-25.39,-1006.35,2.96,-0.78,3.08,124.80,87.45,-26.85,30.2
2026/04/15 14:29:14.30,IMU,4.88,-21.97,-1013.18,-0.66,3.30,1.01,124.05,86.25,-27.15,30.1
2026/04/15 14:29:14.40,IMU,17.58,-14.65,-1011.72,-1.65,3.63,4.47,123.90,86.55,-24.45,29.8
2026/04/15 14:29:14.50,IMU,25.88,-20.02,-1012.21,0.21,-0.11,1.16,124.35,86.85,-27.00,30.1
2026/04/15 14:29:14.60,IMU,1.46,-30.76,-1010.74,1.04,-1.94,-0.94,124.80,88.20,-25.35,29.9
2026/04/15 14:29:14.70,IMU,19.53,-22.95,-1021.00,-1.40,2.65,-0.28,124.35,85.80,-25.20,30.1
2026/04/15 14:29:14.80,IMU,17.09,-7.32,-1011.23,1.73,2.35,-1.56,124.50,87.45,-25.80,30.3
2026/04/15 14:29:14.91,IMU,48.34,-22.46,-992.68,2.23,-0.95,-0.84,125.40,87.30,-26.25,29.9
2026/04/15 14:29:15.01,IMU,4.39,-12.70,-1035.64,2.08,-7.14,-8.35,124.65,88.05,-27.30,30.2
2026/04/15 14:29:15.11,IMU,-4.39,-10.74,-1033.69,3.32,-2.93,-15.80,126.45,86.55,-25.95,29.8
2026/04/15 14:29:15.21,IMU,-4.39,-34.18,-1019.04,5.69,6.29,-28.73,125.25,85.95,-25.05,30.2
2026/04/15 14:29:15.31,IMU,49.80,-38.09,-1015.63,1.24,4.94,-27.92,125.25,85.50,-26.40,29.7
2026/04/15 14:29:15.41,IMU,28.81,-31.74,-1002.44,-4.65,-1.28,-17.08,127.50,84.75,-26.40,30.1
2026/04/15 14:29:15.51,IMU,50.29,-24.41,-1021.00,-1.91,0.98,-14.89,127.20,85.05,-26.25,30.0
2026/04/15 14:29:15.61,IMU,39.55,-18.07,-1010.25,3.45,2.03,-12.37,126.90,85.35,-26.70,30.1
2026/04/15 14:29:15.71,IMU,30.27,-41.50,-1018.07,1.36,-0.62,-11.35,128.10,85.50,-26.10,30.2
2026/04/15 14:29:15.81,IMU,29.30,-22.95,-995.12,-0.49,0.49,-15.46,128.55,84.75,-26.85,30.2
2026/04/15 14:29:15.91,IMU,14.65,-23.44,-1025.88,1.43,1.82,-13.37,127.20,83.85,-26.70,29.9
2026/04/15 14:29:16.01,IMU,44.43,-27.83,-1021.97,2.83,0.82,-12.04,129.15,84.60,-27.30,30.3
2026/04/15 14:29:16.11,IMU,38.09,-39.06,-1012.21,0.42,-2.47,-8.76,129.30,82.95,-26.40,30.4
2026/04/15 14:29:16.21,IMU,29.30,-24.41,-1002.44,0.35,-0.50,-13.35,128.70,84.15,-26.70,30.2
2026/04/15 14:29:16.31,IMU,29.30,-6.84,-1011.72,1.15,-1.62,-11.47,130.05,84.45,-27.60,30.3
2026/04/15 14:29:16.41,IMU,21.97,-21.97,-1020.02,1.00,0.12,-8.04,129.75,83.10,-25.20,30.1
2026/04/15 14:29:16.51,IMU,23.44,-26.37,-1013.18,-1.73,1.48,-10.34,130.20,82.35,-27.00,30.1
2026/04/15 14:29:16.61,IMU,13.18,-29.79,-1009.77,-4.90,0.49,-17.98,132.45,83.10,-27.30,29.9
2026/04/15 14:29:16.71,IMU,28.81,17.09,-1049.32,-0.89,0.44,-18.34,130.80,83.25,-26.10,30.2
2026/04/15 14:29:16.82,IMU,20.51,-4.39,-1022.46,6.50,-2.71,-11.27,132.15,81.75,-25.05,29.9
2026/04/15 14:29:16.92,IMU,30.27,-43.46,-1014.65,-1.34,-2.19,-11.97,132.45,82.65,-27.00,30.3
2026/04/15 14:29:17.02,IMU,18.55,-0.49,-1030.27,-5.24,1.87,-15.50,131.85,81.00,-25.80,29.9
2026/04/15 14:29:17.12,IMU,20.51,-14.16,-1000.98,4.39,0.60,-12.30,131.25,80.85,-25.95,29.9
2026/04/15 14:29:17.22,IMU,17.58,-13.18,-1011.23,0.46,-1.62,-14.05,131.10,79.50,-26.10,30.2
2026/04/15 14:29:17.32,IMU,6.35,-0.49,-1015.63,0.42,-0.04,-14.44,132.90,80.25,-27.15,30.4
2026/04/15 14:29:17.42,IMU,23.93,-10.74,-1011.72,-1.37,1.98,-10.03,133.35,80.25,-25.35,29.8
2026/04/15 14:29:17.52,IMU,46.88,-19.53,-1019.04,-1.85,0.53,-3.16,133.35,79.50,-27.90,30.1
2026/04/15 14:29:17.62,IMU,9.77,-4.88,-1008.30,1.73,-0.33,-8.40,132.75,78.45,-25.95,29.9
2026/04/15 14:29:17.72,IMU,-21.97,-11.23,-1008.30,-1.84,0.04,-9.76,130.95,78.90,-26.70,30.2
2026/04/15 14:29:17.82,IMU,3.42,0.00,-1016.60,-0.10,1.56,-14.85,132.90,81.00,-26.10,30.3
2026/04/15 14:29:17.92,IMU,32.23,4.39,-1006.84,1.60,4.02,-11.73,133.20,79.35,-27.75,30.2
2026/04/15 14:29:18.02,IMU,32.23,4.39,-1022.95,5.32,-0.31,-11.40,133.65,77.55,-26.85,30.2
2026/04/15 14:29:18.12,IMU,35.64,-4.39,-1020.02,-1.58,0.98,-3.35,133.80,78.90,-25.95,29.9
2026/04/15 14:29:18.22,IMU,32.71,-17.09,-1010.25,-3.93,1.29,-0.76,134.10,77.55,-26.85,30.2
2026/04/15 14:29:18.32,IMU,28.81,21.48,-1029.79,-1.60,-0.17,-2.53,134.55,78.45,-26.25,30.0
2026/04/15 14:29:18.42,IMU,42.48,21.48,-1026.37,5.52,-0.74,-5.03,133.35,79.50,-26.10,30.1
2026/04/15 14:29:18.52,IMU,31.25,17.09,-1008.79,4.07,-0.34,-3.70,134.40,77.25,-26.85,30.1
2026/04/15 14:29:18.62,IMU,25.88,-4.39,-985.35,-1.43,2.24,-7.27,134.40,78.30,-26.85,30.2
2026/04/15 14:29:18.72,IMU,25.39,22.95,-1018.07,-4.56,2.49,-8.64,133.20,77.40,-27.30,30.2
2026/04/15 14:29:18.82,IMU,17.09,27.34,-1036.62,2.15,0.66,-13.24,133.80,77.70,-26.25,30.3
2026/04/15 14:29:18.93,IMU,19.53,5.37,-1010.74,3.00,-1.89,-4.75,134.25,77.40,-27.00,30.2
2026/04/15 14:29:19.03,IMU,11.23,7.32,-1003.42,-2.07,-0.69,-4.93,133.20,76.95,-27.30,30.3
2026/04/15 14:29:19.13,IMU,21.97,24.90,-991.21,-3.62,0.06,-7.22,134.55,77.40,-28.05,30.0
2026/04/15 14:29:19.23,IMU,13.18,25.39,-1007.81,-4.17,2.27,-6.04,132.45,76.65,-28.80,29.8
2026/04/15 14:29:19.33,IMU,17.58,13.67,-1020.51,-4.81,4.76,-8.63,133.80,77.40,-27.00,30.2
2026/04/15 14:29:19.43,IMU,34.67,28.81,-1031.74,-2.52,4.33,-2.60,133.35,77.55,-27.60,30.3
2026/04/15 14:29:19.53,IMU,50.78,40.53,-1039.55,1.82,-6.11,1.97,133.35,78.30,-27.90,30.3
2026/04/15 14:29:19.63,IMU,9.77,-5.86,-1007.81,0.09,-0.89,10.40,133.50,76.20,-28.80,29.9
2026/04/15 14:29:19.73,IMU,19.04,49.32,-1012.70,-1.67,3.91,5.30,135.15,78.75,-27.90,30.1
2026/04/15 14:29:19.83,IMU,27.83,14.65,-1010.74,3.92,-2.69,8.22,133.80,78.15,-27.75,30.4
2026/04/15 14:29:19.93,IMU,39.55,16.11,-1027.34,0.05,0.41,-0.04,134.55,78.15,-27.75,30.2
2026/04/15 14:29:20.03,IMU,6.84,29.30,-1018.07,2.84,5.02,-1.72,133.35,77.55,-27.15,29.8
2026/04/15 14:29:20.13,IMU,42.97,11.72,-1015.63,1.99,3.35,2.54,130.50,77.40,-23.70,29.9
2026/04/15 14:29:20.23,IMU,28.81,35.64,-1013.18,-0.28,4.40,0.60,132.75,76.65,-26.70,30.2
2026/04/15 14:29:20.33,IMU,34.67,33.20,-1009.28,-2.02,-2.03,-0.18,133.35,78.00,-27.15,30.2
2026/04/15 14:29:20.43,IMU,23.93,35.16,-1015.63,-5.53,-1.91,3.84,132.90,78.00,-27.15,29.8
2026/04/15 14:29:20.53,IMU,24.41,37.11,-1015.14,-4.80,-2.76,5.62,133.80,78.15,-28.05,30.3
2026/04/15 14:29:20.63,IMU,-8.30,28.81,-1015.63,-0.07,-1.27,3.46,133.50,78.90,-26.70,30.0
2026/04/15 14:29:20.73,IMU,-2.44,29.30,-1009.77,3.79,0.36,-5.34,134.25,78.45,-27.75,30.3
2026/04/15 14:29:20.84,IMU,1.46,30.76,-1014.16,1.51,-1.92,-2.76,134.40,79.80,-27.15,29.8
2026/04/15 14:29:20.94,IMU,6.35,46.39,-1003.42,-2.07,1.57,-4.53,133.65,78.00,-26.10,29.9
2026/04/15 14:29:21.04,IMU,14.65,44.43,-1005.37,-5.15,0.52,-0.57,134.85,79.80,-26.40,30.2
2026/04/15 14:29:21.14,IMU,21.48,41.02,-1009.28,1.28,2.24,-1.77,129.30,76.80,-21.45,30.2
2026/04/15 14:29:21.24,IMU,8.79,58.11,-1026.86,2.24,-4.53,-2.98,135.30,78.45,-27.75,30.3
2026/04/15 14:29:21.34,IMU,37.60,38.57,-995.12,1.81,4.43,-1.83,134.85,79.05,-26.85,29.9
2026/04/15 14:29:21.44,IMU,19.04,24.90,-1002.93,-0.26,5.14,-7.01,134.85,78.00,-27.90,30.1
2026/04/15 14:29:21.54,IMU,34.18,78.61,-1023.93,-1.37,1.95,-0.47,134.40,78.75,-27.90,30.2
2026/04/15 14:29:21.64,IMU,44.92,62.99,-1027.83,-0.58,-0.93,3.30,134.55,77.70,-25.50,29.9
2026/04/15 14:29:21.74,IMU,1.46,24.41,-963.87,-0.62,-2.81,3.67,134.40,78.75,-26.85,30.3
2026/04/15 14:29:21.84,IMU,19.04,52.73,-995.61,-3.38,2.73,1.59,133.80,80.40,-27.00,29.9
2026/04/15 14:29:21.94,IMU,18.55,53.22,-1029.30,-0.24,2.57,-3.47,134.85,78.00,-26.85,30.2
2026/04/15 14:29:22.04,IMU,48.83,48.83,-1026.86,3.20,-0.96,-6.34,133.65,79.05,-26.85,30.0
2026/04/15 14:29:22.15,IMU,39.55,36.62,-1022.46,2.38,-0.29,-1.50,134.55,78.45,-27.00,30.3
2026/04/15 14:29:22.25,IMU,33.20,61.52,-1010.74,2.18,-1.73,4.15,133.65,78.30,-28.20,29.7
2026/04/15 14:29:22.35,IMU,31.25,54.20,-1009.28,0.15,-0.04,5.40,132.90,78.00,-25.80,29.9
2026/04/15 14:29:22.45,IMU,15.63,53.71,-1016.11,1.79,-0.73,6.37,133.35,78.00,-27.60,30.1
2026/04/15 14:29:22.55,IMU,1.95,36.13,-1009.28,-1.44,-4.31,2.90,134.25,78.15,-27.00,29.9
2026/04/15 14:29:22.65,IMU,-5.86,51.76,-1030.27,-2.03,-2.48,-0.21,134.55,77.40,-28.05,29.9
2026/04/15 14:29:22.75,IMU,0.98,49.80,-1029.79,1.78,0.60,-4.95,135.00,79.35,-26.70,30.0
2026/04/15 14:29:22.85,IMU,9.28,32.23,-1016.60,2.24,1.36,-1.75,133.50,78.15,-27.00,30.3
2026/04/15 14:29:22.95,IMU,11.23,34.67,-995.61,0.09,3.31,-1.56,133.35,78.30,-27.90,30.3
2026/04/15 14:29:23.05,IMU,32.71,39.55,-1000.98,-2.97,-0.37,-1.37,134.55,76.95,-27.30,30.1
2026/04/15 14:29:23.15,IMU,-3.42,51.27,-1007.32,-0.87,1.61,-3.00,133.80,78.45,-26.70,30.0
2026/04/15 14:29:23.25,IMU,17.58,44.92,-1026.37,0.47,-0.72,0.23,134.55,76.95,-26.70,30.1
2026/04/15 14:29:23.35,IMU,2.44,41.02,-1027.83,1.20,0.92,0.90,133.65,78.75,-27.15,29.9
2026/04/15 14:29:23.45,IMU,40.04,44.43,-1013.67,2.48,-1.08,-1.02,134.85,79.80,-27.15,30.1
2026/04/15 14:29:23.55,IMU,28.81,49.80,-1005.86,2.89,1.48,0.28,134.25,78.45,-27.75,30.3
2026/04/15 14:29:23.65,IMU,31.74,42.48,-1018.07,3.98,0.18,0.80,134.55,77.70,-27.75,30.3
2026/04/15 14:29:23.75,IMU,27.34,37.60,-1013.67,-1.11,-0.65,-0.67,133.20,77.40,-27.30,30.3
2026/04/15 14:29:23.85,IMU,22.95,45.41,-1019.04,-1.25,1.28,0.50,134.55,77.70,-26.70,30.3
2026/04/15 14:29:23.95,IMU,25.88,41.02,-1024.41,1.07,0.32,0.83,133.65,78.30,-28.20,29.9
2026/04/15 14:29:24.06,IMU,0.49,42.48,-1024.90,2.80,-2.08,0.66,134.85,77.55,-25.80,30.3
2026/04/15 14:29:24.16,IMU,23.44,40.04,-1004.39,1.44,-2.25,-2.38,134.25,78.15,-27.00,30.0
2026/04/15 14:29:24.26,IMU,28.81,35.64,-1011.23,-0.27,1.29,-0.59,135.00,78.15,-27.75,29.9
2026/04/15 14:29:24.36,IMU,23.44,43.46,-1007.81,0.35,1.67,-3.63,133.50,76.95,-26.70,30.3
2026/04/15 14:29:24.46,IMU,17.09,45.90,-1012.70,-2.24,0.53,1.45,133.20,77.40,-27.75,30.0
2026/04/15 14:29:24.56,IMU,17.09,58.11,-1025.88,-1.12,0.99,-3.23,134.85,79.05,-26.85,29.9
2026/04/15 14:29:24.66,IMU,12.70,33.20,-1006.84,0.06,-0.37,0.79,134.55,76.20,-25.95,30.5
2026/04/15 14:29:24.76,IMU,26.37,41.99,-997.56,1.53,0.71,-1.58,134.85,77.25,-27.15,30.1
2026/04/15 14:29:24.86,IMU,23.44,22.46,-1011.23,0.08,0.94,-1.60,133.50,78.45,-27.75,30.0
2026/04/15 14:29:24.96,IMU,20.51,34.67,-1011.23,-2.31,0.51,0.05,134.55,78.45,-27.75,29.8
2026/04/15 14:29:25.06,IMU,23.93,41.50,-999.51,-1.95,0.21,0.73,133.80,78.15,-27.00,29.9
2026/04/15 14:29:25.16,IMU,11.23,29.79,-1000.00,1.55,0.69,0.31,134.55,77.70,-26.70,30.3
2026/04/15 14:29:25.26,IMU,5.86,35.64,-1011.23,-0.22,0.26,2.18,134.10,78.00,-27.15,30.3
2026/04/15 14:29:25.36,IMU,21.97,32.71,-1015.14,2.01,0.52,0.09,131.70,76.65,-26.70,29.9
2026/04/15 14:29:25.46,IMU,28.81,34.18,-1027.34,1.47,-3.11,0.84,134.40,77.55,-26.40,29.9
2026/04/15 14:29:25.56,IMU,24.41,40.53,-1011.23,0.61,-0.69,3.17,134.10,77.25,-26.40,30.3
2026/04/15 14:29:25.66,IMU,19.53,20.51,-1090.33,-5.10,6.68,-8.22,134.25,78.15,-27.00,30.2
2026/04/15 14:29:25.76,IMU,21.00,35.64,-1000.98,-1.41,0.40,-7.36,134.10,77.25,-27.15,30.0
2026/04/15 14:29:25.86,IMU,43.95,29.30,-1017.58,-0.51,-7.71,4.75,134.10,78.75,-28.20,30.1
2026/04/15 14:29:25.96,IMU,12.70,71.78,-999.02,-7.02,-19.25,19.42,135.00,78.15,-26.25,29.9
2026/04/15 14:29:26.07,IMU,-106.93,75.68,-995.61,8.97,-0.53,-2.53,135.45,78.30,-25.35,30.1
2026/04/15 14:29:26.17,IMU,3.91,0.00,-1009.28,10.24,15.45,-19.22,135.15,76.05,-27.15,30.0
2026/04/15 14:29:26.27,IMU,70.80,1.46,-1007.81,-5.43,-7.04,2.41,134.55,77.70,-26.25,30.3
2026/04/15 14:29:26.37,IMU,-44.43,55.66,-1018.07,-3.21,-8.30,10.62,136.50,79.35,-25.50,30.2
2026/04/15 14:29:26.47,IMU,-59.08,60.06,-1025.88,6.89,9.11,-0.72,135.75,79.35,-26.70,30.2
2026/04/15 14:29:26.57,IMU,2.44,10.25,-1009.28,6.22,3.98,-4.85,135.15,78.75,-26.85,29.8
2026/04/15 14:29:26.67,IMU,-8.30,33.20,-1025.88,0.34,-3.02,-1.50,135.15,77.25,-28.20,29.9
2026/04/15 14:29:26.77,IMU,-28.32,63.48,-993.16,2.28,-3.26,-8.75,135.75,77.40,-26.70,30.2
2026/04/15 14:29:26.87,IMU,-3.42,24.90,-1014.65,0.02,0.01,-10.92,134.85,76.80,-26.85,29.8
2026/04/15 14:29:26.97,IMU,-9.77,19.04,-1029.79,-7.21,-1.00,-3.74,135.30,75.90,-25.95,29.9
2026/04/15 14:29:27.07,IMU,-58.11,48.83,-1032.71,-1.43,-1.50,-7.37,136.05,76.95,-27.00,29.9
2026/04/15 14:29:27.17,IMU,-5.37,24.90,-998.54,2.53,7.36,-12.79,136.20,75.60,-27.60,30.0
2026/04/15 14:29:27.27,IMU,33.69,4.39,-979.00,-2.34,3.02,-6.40,136.65,76.50,-27.90,30.2
2026/04/15 14:29:27.37,IMU,19.53,34.18,-1030.76,-6.65,-4.31,6.94,135.75,76.65,-26.70,29.9
2026/04/15 14:29:27.47,IMU,-41.99,49.32,-1029.30,1.27,-1.94,-0.47,135.75,76.65,-28.50,30.2
2026/04/15 14:29:27.57,IMU,4.39,20.02,-1013.67,6.61,2.82,0.37,137.25,76.65,-26.70,29.8
2026/04/15 14:29:27.67,IMU,14.65,-0.98,-1010.74,-1.31,2.26,5.98,135.00,76.20,-26.25,29.9
2026/04/15 14:29:27.77,IMU,-19.04,40.53,-1022.95,-2.51,-3.26,9.75,136.65,77.55,-28.20,30.1
2026/04/15 14:29:27.87,IMU,-11.23,47.85,-1015.63,3.57,1.08,-1.74,135.00,76.95,-27.00,30.1
2026/04/15 14:29:27.97,IMU,16.11,31.74,-1022.95,2.58,2.79,4.07,135.00,77.40,-27.00,30.2
2026/04/15 14:29:28.07,IMU,-23.44,42.48,-1005.37,-3.96,-2.65,3.82,135.90,77.25,-26.10,30.2
2026/04/15 14:29:28.18,IMU,-0.49,70.31,-1002.93,1.21,4.70,-4.96,135.45,76.50,-27.15,30.1
2026/04/15 14:29:28.28,IMU,13.18,14.16,-1022.46,-0.89,0.66,0.85,132.75,75.90,-24.45,30.2
2026/04/15 14:29:28.38,IMU,14.65,31.74,-1013.67,-3.87,-6.30,3.63,135.45,77.25,-27.90,30.1
2026/04/15 14:29:28.48,IMU,-38.09,39.55,-1011.72,-1.25,-1.97,3.77,135.90,77.25,-26.40,30.2
2026/04/15 14:29:28.58,IMU,-36.62,8.30,-1016.60,-2.09,1.27,-5.36,135.45,77.25,-27.60,29.9
2026/04/15 14:29:28.68,IMU,-5.86,32.71,-1017.09,1.19,1.24,-3.40,135.90,77.25,-26.10,30.0
2026/04/15 14:29:28.78,IMU,-11.23,32.23,-1016.60,-2.44,-2.33,3.66,135.90,77.25,-26.40,29.7
2026/04/15 14:29:28.88,IMU,-21.48,43.46,-1001.95,-0.47,0.73,0.83,136.05,77.40,-27.75,30.1
2026/04/15 14:29:28.98,IMU,34.18,-21.00,-1030.76,6.08,8.24,-12.64,135.75,77.40,-25.95,30.3
2026/04/15 14:29:29.08,IMU,-11.23,24.90,-1047.36,-0.20,1.97,-6.12,136.65,76.05,-27.15,30.2
2026/04/15 14:29:29.18,IMU,-2.93,18.55,-1001.95,3.15,3.96,-3.47,135.30,76.65,-25.50,29.8
2026/04/15 14:29:29.28,IMU,21.48,24.41,-993.16,2.83,5.34,-1.63,133.50,73.95,-24.90,29.8
2026/04/15 14:29:29.38,IMU,16.60,21.48,-1002.44,0.38,1.69,-1.36,134.25,76.95,-27.75,30.2
2026/04/15 14:29:29.48,IMU,7.32,31.74,-1006.84,1.46,-1.09,5.35,135.00,75.90,-27.75,29.9
2026/04/15 14:29:29.58,IMU,6.35,29.79,-1021.00,-0.33,0.18,1.92,134.55,75.90,-27.00,29.9
2026/04/15 14:29:29.68,IMU,-6.35,19.04,-1025.39,0.38,1.95,1.03,135.30,76.20,-27.30,30.0
2026/04/15 14:29:29.78,IMU,15.14,24.90,-1013.67,0.86,0.31,2.35,136.05,76.95,-27.75,30.2
2026/04/15 14:29:29.88,IMU,0.98,19.04,-1022.95,1.31,-0.05,7.34,133.20,76.20,-27.00,29.9
2026/04/15 14:29:29.98,IMU,-9.28,6.35,-1005.86,0.57,-2.99,2.28,135.45,75.60,-27.60,29.9
2026/04/15 14:29:30.08,IMU,1.95,6.84,-1021.00,3.05,1.51,0.68,135.90,78.00,-27.60,29.9
2026/04/15 14:29:30.19,IMU,1.95,-1.46,-1027.34,0.42,0.11,-0.24,134.85,76.50,-28.95,29.9
2026/04/15 14:29:30.29,IMU,-5.86,12.70,-1000.98,0.43,1.55,0.02,131.25,74.70,-21.60,30.1
2026/04/15 14:29:30.39,IMU,19.53,7.81,-1013.18,2.21,0.66,0.07,134.40,76.50,-27.60,30.0
2026/04/15 14:29:30.49,IMU,24.90,0.98,-1014.16,0.50,0.57,0.61,134.25,76.65,-27.75,29.9
2026/04/15 14:29:30.59,IMU,-5.37,10.25,-1016.11,0.85,-2.24,3.48,135.00,74.70,-28.05,29.9
2026/04/15 14:29:30.69,IMU,6.84,6.84,-1016.11,2.69,-1.57,-0.72,134.40,75.60,-27.15,29.9
2026/04/15 14:29:30.79,IMU,8.79,4.39,-1013.67,0.08,-0.74,0.12,134.55,76.65,-28.05,29.9
2026/04/15 14:29:30.89,IMU,9.77,-1.95,-1001.95,-1.46,-0.97,0.32,134.10,76.80,-27.60,30.0
2026/04/15 14:29:30.99,IMU,9.77,8.30,-1014.16,0.59,1.93,2.08,135.30,75.45,-27.30,29.9
2026/04/15 14:29:31.09,IMU,1.46,2.44,-1017.09,-1.47,0.73,-1.49,134.25,75.45,-26.25,29.9
2026/04/15 14:29:31.19,IMU,6.84,15.63,-1009.28,2.16,-1.44,-0.44,134.40,76.05,-27.15,29.9
2026/04/15 14:29:31.30,IMU,-1.46,6.84,-1018.07,1.70,0.66,1.66,133.80,75.45,-26.70,29.9
2026/04/15 14:29:31.40,IMU,17.58,-6.84,-1014.16,-0.02,3.34,-2.03,133.80,75.45,-27.30,29.9
2026/04/15 14:29:31.50,IMU,5.37,6.84,-999.51,-0.08,-1.23,2.58,134.85,76.05,-28.20,29.8
2026/04/15 14:29:31.60,IMU,29.79,34.67,-1009.28,1.37,-0.89,-1.22,134.40,78.00,-27.60,29.8
2026/04/15 14:29:31.70,IMU,-4.88,-5.86,-1022.95,0.60,-0.14,2.15,134.85,78.00,-26.85,30.2
2026/04/15 14:29:31.80,IMU,-10.74,0.49,-1022.46,-0.21,-0.35,-0.14,134.55,75.45,-27.75,30.2
2026/04/15 14:29:31.90,IMU,-15.63,2.44,-1016.60,0.79,-1.06,0.88,133.50,76.95,-28.50,29.9
2026/04/15 14:29:32.00,IMU,10.74,-6.84,-1014.65,1.70,-0.50,-2.79,135.75,75.90,-27.75,29.8
2026/04/15 14:29:32.10,IMU,4.39,0.98,-1004.39,0.78,0.63,-2.98,134.85,76.80,-26.85,29.7
2026/04/15 14:29:32.20,IMU,16.11,1.95,-1011.23,1.49,1.53,-1.47,135.90,76.50,-27.60,29.6
2026/04/15 14:29:32.30,IMU,3.42,9.28,-1017.09,0.15,-1.34,2.50,134.40,74.85,-27.60,30.0
2026/04/15 14:29:32.40,IMU,-25.39,-1.46,-1029.30,-0.78,0.07,2.27,134.55,75.90,-27.30,30.1
2026/04/15 14:29:32.50,IMU,-6.84,-14.16,-1013.18,-2.40,-0.11,-1.28,133.50,77.70,-27.75,29.6
2026/04/15 14:29:32.60,IMU,-6.35,-0.49,-1017.09,0.71,-1.08,-3.66,134.25,76.95,-27.30,29.8
2026/04/15 14:29:32.70,IMU,13.67,-1.95,-1013.18,2.37,1.02,-1.15,135.00,74.70,-27.75,30.0
2026/04/15 14:29:32.80,IMU,-2.44,9.28,-1014.16,2.29,1.69,-0.53,134.55,78.15,-27.30,29.8
2026/04/15 14:29:32.90,IMU,4.88,-8.79,-1005.37,1.02,-0.63,0.30,133.80,75.15,-27.30,29.8
2026/04/15 14:29:33.00,IMU,0.00,3.91,-1007.32,-0.45,-2.17,1.39,134.40,76.05,-28.20,30.0
2026/04/15 14:29:33.11,IMU,-1.95,9.77,-1016.60,0.92,0.11,0.11,134.55,76.20,-27.30,30.1
2026/04/15 14:29:33.21,IMU,-0.98,-11.72,-1006.35,0.44,-0.56,0.21,135.00,74.40,-28.50,29.9
2026/04/15 14:29:33.31,IMU,6.35,0.49,-1006.84,-1.78,0.21,1.63,134.10,77.25,-27.90,30.1
2026/04/15 14:29:33.41,IMU,-3.91,1.95,-1000.49,2.54,0.59,0.33,133.35,76.50,-27.60,29.9
2026/04/15 14:29:33.51,IMU,-8.79,20.02,-1030.76,2.27,-3.19,3.29,134.25,75.45,-27.30,29.9
2026/04/15 14:29:33.61,IMU,-2.93,-4.88,-1001.46,-1.70,-1.71,2.11,135.90,77.25,-27.15,30.1
2026/04/15 14:29:33.71,IMU,-3.42,4.39,-1003.42,0.02,-1.82,0.74,133.80,76.65,-26.70,30.0
2026/04/15 14:29:33.81,IMU,-3.42,-1.95,-1005.86,-0.97,1.12,-0.77,134.85,76.80,-26.85,30.3
2026/04/15 14:29:33.91,IMU,-1.46,16.60,-1017.58,-1.31,0.50,1.26,135.75,76.65,-28.80,29.9
2026/04/15 14:29:34.01,IMU,4.88,0.49,-1013.18,-2.37,0.82,-2.84,134.85,77.25,-27.60,29.8
2026/04/15 14:29:34.11,IMU,-4.88,2.93,-1017.58,3.27,0.74,-1.26,134.10,114.45,-27.00,30.0
2026/04/15 14:29:34.21,IMU,-1.95,-2.44,-1016.60,1.89,0.84,-2.05,134.55,76.65,-27.00,29.8
2026/04/15 14:29:34.31,IMU,2.93,-6.84,-1005.86,-0.09,2.24,0.53,134.25,77.70,-27.00,30.1
2026/04/15 14:29:34.41,IMU,7.32,13.67,-1019.53,-3.68,0.47,-0.34,134.85,77.25,-27.60,29.9
2026/04/15 14:29:34.51,IMU,8.30,10.74,-1010.25,0.83,-1.83,1.46,133.80,76.95,-27.75,29.9
2026/04/15 14:29:34.61,IMU,-1.95,-6.84,-1022.46,1.53,-0.57,0.13,135.30,77.40,-27.75,30.2
2026/04/15 14:29:34.71,IMU,7.32,4.88,-1006.35,2.10,-0.50,1.71,133.65,75.30,-27.90,29.9
2026/04/15 14:29:34.81,IMU,-1.46,1.95,-1007.81,0.06,-2.05,3.24,134.55,75.90,-28.80,30.1
2026/04/15 14:29:34.91,IMU,-1.46,1.95,-1024.41,0.35,1.08,-0.64,135.45,75.60,-27.60,29.7
2026/04/15 14:29:35.01,IMU,0.98,6.84,-1011.72,2.32,1.94,-0.06,134.55,75.45,-27.30,29.8
2026/04/15 14:29:35.11,IMU,-10.25,9.77,-1012.70,2.08,1.12,2.62,134.55,75.15,-27.30,29.9
2026/04/15 14:29:35.21,IMU,4.39,4.88,-1021.48,-0.29,-3.72,-2.57,135.00,76.95,-28.05,30.1
2026/04/15 14:29:35.32,IMU,4.88,-5.37,-992.19,-0.33,0.89,1.48,135.15,75.60,-27.60,30.0
2026/04/15 14:29:35.42,IMU,-1.95,-8.79,-1009.28,-2.34,1.68,0.90,135.30,75.90,-25.95,29.8
2026/04/15 14:29:35.52,IMU,11.23,11.72,-1022.46,0.50,-1.87,0.44,134.25,77.40,-27.30,29.9
2026/04/15 14:29:35.62,IMU,-10.25,2.44,-1007.32,2.89,1.43,0.24,134.85,75.60,-26.85,29.9
2026/04/15 14:29:35.72,IMU,24.41,-7.32,-1005.37,2.59,-0.25,-1.41,134.40,74.85,-26.85,30.0
2026/04/15 14:29:35.82,IMU,6.84,-8.79,-1002.93,-0.20,-0.51,-0.41,133.80,76.65,-27.00,29.9
2026/04/15 14:29:35.92,IMU,-8.79,0.49,-1022.95,1.83,3.77,1.40,133.65,76.50,-28.20,30.1
2026/04/15 14:29:36.02,IMU,15.63,-16.11,-1008.79,0.24,-0.61,-0.78,133.65,75.30,-28.20,29.8
2026/04/15 14:29:36.12,IMU,5.37,-12.21,-1018.07,-1.34,-0.90,2.13,133.35,76.50,-27.90,29.9
2026/04/15 14:29:36.22,IMU,-1.95,-6.84,-1005.86,0.42,0.31,-0.66,134.55,75.90,-28.05,30.0
2026/04/15 14:29:36.32,IMU,19.04,6.35,-1017.58,1.58,-0.10,2.06,133.65,76.80,-27.15,29.8
2026/04/15 14:29:36.42,IMU,2.93,-6.84,-1020.51,3.72,0.84,0.47,135.45,76.50,-26.85,29.7
2026/04/15 14:29:36.52,IMU,-2.44,-4.88,-1016.11,1.53,1.40,-2.59,134.25,75.90,-27.00,30.0
2026/04/15 14:29:36.62,IMU,7.32,-4.39,-1024.41,-0.77,-0.11,1.71,133.50,76.95,-28.05,29.8
2026/04/15 14:29:36.72,IMU,15.63,-18.55,-1007.32,0.43,-1.24,1.59,134.85,76.50,-27.15,29.6
2026/04/15 14:29:36.82,IMU,17.58,-21.48,-1010.74,0.11,1.22,0.27,133.80,76.20,-27.00,30.1
2026/04/15 14:29:36.92,IMU,-8.79,-18.55,-1021.00,-0.39,0.32,0.32,135.15,76.50,-28.20,29.9
2026/04/15 14:29:37.02,IMU,-7.81,-11.23,-1023.93,-0.76,0.05,-1.69,134.25,76.65,-28.50,29.6
2026/04/15 14:29:37.12,IMU,3.42,-13.18,-1023.44,-0.02,4.63,0.65,134.40,76.05,-27.60,29.8
2026/04/15 14:29:37.22,IMU,2.93,-14.65,-1010.25,2.75,1.12,-0.28,134.10,74.85,-28.65,29.8
2026/04/15 14:29:37.33,IMU,3.91,-12.70,-1021.00,1.60,0.82,2.23,134.10,76.50,-28.20,29.9
2026/04/15 14:29:37.43,IMU,18.55,-20.51,-1011.23,0.54,0.11,1.94,133.20,75.15,-27.30,29.7
2026/04/15 14:29:37.53,IMU,7.32,-21.00,-1022.46,-0.42,1.16,2.98,134.85,75.60,-26.40,29.8
2026/04/15 14:29:37.63,IMU,3.42,-7.81,-1021.48,1.81,1.16,0.96,136.20,76.05,-27.60,29.9
2026/04/15 14:29:37.73,IMU,-14.65,-26.37,-1024.90,0.24,-0.56,-1.79,134.85,75.60,-28.20,29.6
2026/04/15 14:29:37.83,IMU,11.23,-20.51,-1011.23,0.28,1.55,0.26,135.15,75.30,-26.85,30.0
2026/04/15 14:29:37.93,IMU,-2.44,-5.86,-1023.93,2.89,0.54,-0.67,134.85,76.80,-28.95,29.9
2026/04/15 14:29:38.03,IMU,2.93,-24.90,-1012.21,-0.73,1.25,1.03,135.45,74.55,-27.90,29.8
2026/04/15 14:29:38.13,IMU,8.79,-18.07,-1017.09,0.95,0.05,-3.97,133.35,76.05,-27.60,29.8
2026/04/15 14:29:38.23,IMU,-6.84,-31.25,-1020.02,0.98,2.81,-0.07,133.50,75.90,-25.95,29.9
2026/04/15 14:29:38.33,IMU,-1.95,-34.18,-1007.81,1.27,0.92,0.16,133.65,75.30,-27.15,29.9
2026/04/15 14:29:38.43,IMU,-1.46,-31.74,-1015.14,2.40,-1.10,1.32,131.25,73.20,-25.50,30.0
2026/04/15 14:29:38.53,IMU,5.37,-38.09,-1016.60,1.25,-2.64,1.18,134.10,75.60,-28.20,30.0
2026/04/15 14:29:38.63,IMU,-3.91,-33.20,-1020.02,-0.59,2.51,-1.97,134.55,75.90,-27.75,29.8
2026/04/15 14:29:38.73,IMU,0.00,-30.27,-1017.58,0.51,2.60,-3.73,134.40,76.05,-26.85,29.6
2026/04/15 14:29:38.83,IMU,-0.98,-37.60,-1021.48,-0.69,-0.99,-1.79,134.25,75.15,-27.30,29.8
2026/04/15 14:29:38.93,IMU,5.86,-22.46,-1002.44,-1.48,0.73,1.00,134.40,76.50,-26.85,29.8
2026/04/15 14:29:39.03,IMU,11.72,-27.83,-1023.93,-1.45,1.58,-1.10,134.40,76.05,-27.15,30.1
2026/04/15 14:29:39.13,IMU,3.42,-35.64,-1011.23,2.21,1.35,4.23,133.80,75.45,-27.75,29.8
2026/04/15 14:29:39.23,IMU,18.07,-30.27,-1024.90,0.89,0.38,-0.22,134.85,76.80,-27.15,29.8
2026/04/15 14:29:39.33,IMU,8.30,-35.64,-1011.72,0.17,1.92,1.45,135.00,76.20,-29.55,29.8
2026/04/15 14:29:39.44,IMU,-4.88,-28.32,-1014.65,0.65,-0.56,2.55,133.50,76.65,-27.00,29.8
2026/04/15 14:29:39.54,IMU,-15.14,-23.93,-1003.91,0.38,0.37,0.23,134.10,76.05,-27.90,29.9
2026/04/15 14:29:39.64,IMU,0.00,-21.00,-1011.72,1.92,-2.63,1.08,133.50,75.15,-27.00,29.9
2026/04/15 14:29:39.74,IMU,-3.91,-14.65,-1015.63,0.44,-0.80,2.16,134.40,75.30,-27.90,29.6
2026/04/15 14:29:39.84,IMU,3.91,-25.39,-1028.32,-2.66,-0.26,1.82,135.75,75.90,-27.30,29.7
2026/04/15 14:29:39.94,IMU,-7.81,-37.60,-1018.07,-3.48,1.34,-1.50,135.15,76.50,-28.20,29.9
2026/04/15 14:29:40.04,IMU,-8.79,-2.44,-1048.34,-0.49,4.12,-6.24,132.90,75.60,-28.65,29.8
2026/04/15 14:29:40.14,IMU,16.11,-18.55,-1007.81,0.82,-0.25,1.73,134.40,74.85,-27.90,29.7
2026/04/15 14:29:40.24,IMU,-14.16,-3.42,-1016.60,0.00,0.37,-4.76,135.15,76.05,-27.60,29.9
2026/04/15 14:29:40.34,IMU,14.16,-11.23,-1015.14,4.22,1.38,-4.10,135.75,76.95,-27.75,30.1
2026/04/15 14:29:40.45,IMU,10.25,-22.95,-993.65,0.40,-1.85,0.94,132.45,72.00,-22.35,29.8
2026/04/15 14:29:40.55,IMU,14.65,-33.20,-1019.53,-0.98,-1.59,-2.58,134.55,75.15,-27.00,29.9
2026/04/15 14:29:40.65,IMU,7.81,-7.32,-1024.90,2.22,-0.85,-0.69,134.55,76.95,-28.80,29.7
2026/04/15 14:29:40.75,IMU,13.67,-41.50,-1022.46,1.67,0.56,3.08,135.00,75.15,-28.05,29.5
2026/04/15 14:29:40.85,IMU,4.39,-15.63,-1009.77,0.44,0.18,2.30,134.10,76.05,-27.15,30.0
2026/04/15 14:29:40.95,IMU,28.81,-17.58,-1006.84,-2.72,1.53,-5.03,134.85,74.55,-28.20,29.8
2026/04/15 14:29:41.05,IMU,12.70,-20.51,-1008.79,-0.84,-1.03,3.66,134.85,76.50,-27.90,29.9
2026/04/15 14:29:41.15,IMU,17.58,-9.77,-1003.91,0.54,-0.89,2.66,133.80,75.90,-27.00,29.9
2026/04/15 14:29:41.25,IMU,12.21,-18.07,-1024.90,-1.91,0.44,-0.02,134.10,76.80,-27.15,29.9
2026/04/15 14:29:41.35,IMU,0.49,-21.48,-1021.97,-1.13,-2.05,0.63,134.55,75.45,-28.80,29.8
2026/04/15 14:29:41.45,IMU,0.00,-21.48,-1018.07,-0.61,-1.70,1.20,133.80,77.40,-27.75,29.8
2026/04/15 14:29:41.55,IMU,13.18,-5.37,-1006.35,-0.69,0.28,3.57,134.55,76.65,-26.70,29.7
2026/04/15 14:29:41.65,IMU,-1.46,-29.30,-1027.34,0.92,-1.55,1.24,135.00,75.90,-28.50,29.7
2026/04/15 14:29:41.75,IMU,9.28,3.91,-1012.21,0.63,1.34,-1.05,133.80,76.20,-28.05,29.9
2026/04/15 14:29:41.85,IMU,0.98,-7.81,-1008.30,-0.23,0.72,2.27,134.25,75.90,-27.30,29.8
2026/04/15 14:29:41.95,IMU,2.44,-20.51,-1024.90,-1.90,1.44,2.42,135.00,75.90,-27.30,29.8
2026/04/15 14:29:42.06,IMU,10.74,-34.67,-1027.83,1.32,-0.21,0.05,133.80,76.20,-27.75,29.6
2026/04/15 14:29:42.16,IMU,-15.14,-19.53,-1019.04,-1.80,-1.45,4.58,134.55,75.90,-28.05,29.6
2026/04/15 14:29:42.26,IMU,-14.65,-5.86,-1009.77,0.60,1.95,-1.79,134.40,76.80,-27.15,29.7
2026/04/15 14:29:42.36,IMU,-22.95,-20.02,-1006.35,-0.67,0.49,-1.66,133.80,76.20,-27.30,29.6
2026/04/15 14:29:42.46,IMU,-11.23,-32.71,-1007.32,-6.38,0.75,2.01,134.85,74.85,-26.40,29.6
2026/04/15 14:29:42.56,IMU,129.39,-170.90,-952.15,-44.34,3.72,10.21,134.55,77.40,-27.75,29.8
2026/04/15 14:29:42.66,IMU,13.18,94.73,-1127.44,-48.86,14.09,7.54,136.05,81.60,-26.25,29.9
2026/04/15 14:29:42.76,IMU,117.68,166.02,-1040.04,42.65,11.31,8.10,133.35,83.70,-26.40,29.6
2026/04/15 14:29:42.86,IMU,37.60,-236.82,-847.17,48.73,-16.95,13.02,133.65,78.30,-27.15,30.0
2026/04/15 14:29:42.96,IMU,-41.02,-204.59,-1030.27,-32.31,-19.18,17.43,134.85,80.25,-26.85,30.0
2026/04/15 14:29:43.06,IMU,-61.52,208.98,-1157.23,-5.31,18.53,9.18,135.30,81.60,-24.15,29.7
2026/04/15 14:29:43.16,IMU,75.20,31.25,-942.87,65.20,17.53,1.92,134.40,79.50,-26.10,29.8
2026/04/15 14:29:43.26,IMU,166.02,-330.08,-956.05,17.07,-19.43,10.25,134.25,78.15,-27.30,29.7
2026/04/15 14:29:43.36,IMU,-89.84,1.46,-1061.04,-32.40,-23.39,14.69,137.25,79.65,-27.30,29.6
2026/04/15 14:29:43.46,IMU,-124.02,196.29,-1117.68,36.30,12.63,5.11,135.45,80.25,-25.05,29.8
2026/04/15 14:29:43.56,IMU,91.80,-189.45,-1008.79,59.18,23.55,-0.53,133.65,76.80,-25.35,29.9
2026/04/15 14:29:43.66,IMU,141.11,-224.61,-941.41,-23.19,-14.38,15.00,134.85,78.00,-27.90,29.7
2026/04/15 14:29:43.76,IMU,-58.59,151.37,-1089.84,-14.78,-24.79,9.50,135.15,80.55,-26.40,29.8
2026/04/15 14:29:43.86,IMU,-79.59,57.13,-1077.64,56.06,6.79,2.17,137.55,79.65,-26.25,29.9
2026/04/15 14:29:43.96,IMU,38.09,-319.34,-917.48,16.87,20.71,2.10,134.10,76.05,-27.90,29.7
2026/04/15 14:29:44.07,IMU,112.30,-82.52,-912.60,-48.86,-2.08,9.93,133.80,78.15,-25.95,29.8
2026/04/15 14:29:44.17,IMU,35.16,187.01,-1156.25,5.95,-16.18,9.48,134.25,81.90,-26.25,29.8
2026/04/15 14:29:44.27,IMU,-58.59,-185.06,-1056.15,44.84,-1.55,1.98,135.30,78.90,-27.75,29.8
2026/04/15 14:29:44.37,IMU,-3.42,-290.53,-894.53,-27.08,12.45,4.76,136.05,78.45,-26.25,29.6
2026/04/15 14:29:44.47,IMU,77.64,57.13,-1055.66,-48.01,16.95,7.98,134.55,80.85,-25.95,29.6
2026/04/15 14:29:44.57,IMU,55.18,125.98,-1110.35,21.95,-5.94,9.27,132.90,81.00,-24.60,29.8
2026/04/15 14:29:44.67,IMU,0.00,-258.30,-920.41,16.99,-11.39,6.73,135.45,79.50,-25.80,29.9
2026/04/15 14:29:44.77,IMU,-61.52,-142.58,-987.79,-58.43,9.79,10.36,135.15,81.30,-26.10,29.8
2026/04/15 14:29:44.87,IMU,-13.67,179.69,-1181.64,-25.18,26.93,8.59,132.15,84.00,-24.30,29.9
2026/04/15 14:29:44.97,IMU,121.58,-35.64,-983.89,29.56,8.63,10.22,133.20,82.65,-26.25,29.7
2026/04/15 14:29:45.07,IMU,44.43,-275.39,-940.43,-21.87,-13.96,16.77,132.15,82.50,-26.10,29.8
2026/04/15 14:29:45.17,IMU,-127.44,32.23,-1096.68,-59.84,3.56,13.45,133.20,84.60,-24.45,29.7
2026/04/15 14:29:45.27,IMU,-13.67,138.67,-1087.89,11.74,30.02,5.73,132.45,87.60,-24.45,29.9
2026/04/15 14:29:45.37,IMU,152.34,-190.92,-947.75,20.56,15.64,7.70,129.60,87.45,-25.35,29.3
2026/04/15 14:29:45.47,IMU,43.46,-176.27,-960.45,-46.09,-20.84,13.17,130.95,87.30,-25.20,29.8
2026/04/15 14:29:45.57,IMU,-76.17,160.16,-1104.00,-25.35,-8.06,10.92,131.40,90.45,-23.55,29.4
2026/04/15 14:29:45.67,IMU,-54.69,29.79,-1008.30,38.06,23.89,-0.18,130.35,89.40,-24.30,29.7
2026/04/15 14:29:45.77,IMU,141.60,-272.95,-918.46,3.95,12.31,7.53,130.35,87.75,-26.10,29.5
2026/04/15 14:29:45.87,IMU,95.21,-22.95,-973.63,-41.97,-19.08,13.45,128.55,90.45,-25.35,29.6
2026/04/15 14:29:45.97,IMU,-73.73,175.29,-1115.23,13.36,-14.88,8.21,129.75,91.80,-24.45,29.5
2026/04/15 14:29:46.07,IMU,-25.39,-142.09,-1026.86,49.65,5.27,4.08,131.70,88.80,-25.95,29.7
2026/04/15 14:29:46.17,IMU,99.61,-249.02,-935.06,-14.68,8.86,5.53,130.20,89.55,-25.50,29.7
2026/04/15 14:29:46.28,IMU,72.75,93.26,-1063.96,-21.55,-12.24,7.60,127.80,88.95,-25.35,29.7
2026/04/15 14:29:46.38,IMU,2.44,104.00,-1085.94,47.43,-22.42,7.56,129.60,88.95,-25.35,29.7
2026/04/15 14:29:46.48,IMU,-33.20,-251.46,-974.61,34.47,-9.42,5.92,131.25,86.10,-26.70,29.8
2026/04/15 14:29:46.58,IMU,-27.83,-101.07,-994.14,-26.86,5.51,8.57,129.45,87.60,-25.95,29.8
2026/04/15 14:29:46.68,IMU,73.24,178.71,-1135.25,9.95,-2.86,6.92,131.70,89.10,-25.20,29.8
2026/04/15 14:29:46.78,IMU,74.22,-45.41,-989.75,54.60,-19.56,5.53,129.45,85.05,-23.40,29.7
2026/04/15 14:29:46.88,IMU,-39.06,-272.95,-951.66,1.40,-22.23,14.11,131.25,83.40,-24.15,29.9
2026/04/15 14:29:46.98,IMU,-61.04,47.85,-1057.13,-26.58,2.38,10.42,131.10,87.75,-24.30,29.7
2026/04/15 14:29:47.08,IMU,49.32,105.96,-1092.29,33.19,13.84,6.70,130.80,88.65,-24.60,29.7
2026/04/15 14:29:47.18,IMU,95.21,-205.08,-924.32,34.05,-12.50,8.92,129.60,84.00,-27.15,29.7
2026/04/15 14:29:47.28,IMU,-13.18,-157.23,-936.52,-29.90,-24.29,12.40,130.95,85.05,-26.25,29.5
2026/04/15 14:29:47.38,IMU,-106.45,138.18,-1135.74,-13.34,7.20,9.20,132.75,87.60,-24.90,29.5
2026/04/15 14:29:47.48,IMU,7.81,-7.81,-1001.46,39.15,23.83,1.11,130.95,86.10,-25.50,29.6
2026/04/15 14:29:47.58,IMU,142.58,-263.67,-904.30,-2.11,0.88,7.22,127.50,84.45,-27.15,29.8
2026/04/15 14:29:47.68,IMU,-0.49,-25.39,-993.65,-45.34,-14.55,11.63,129.60,87.45,-25.80,29.4
2026/04/15 14:29:47.78,IMU,-113.28,135.25,-1130.37,5.43,5.50,6.79,131.10,87.45,-24.60,29.6
2026/04/15 14:29:47.88,IMU,5.86,-151.37,-964.36,25.59,30.05,-1.88,130.35,86.25,-25.80,29.6
2026/04/15 14:29:47.98,IMU,114.75,-209.96,-944.34,-34.66,16.77,6.66,127.65,85.80,-25.20,29.6
2026/04/15 14:29:48.08,IMU,20.51,112.30,-1100.10,-37.77,-7.24,7.94,127.05,89.70,-24.30,29.8
2026/04/15 14:29:48.18,IMU,-57.13,56.64,-1076.17,22.33,6.59,3.49,127.65,87.60,-24.90,29.6
2026/04/15 14:29:48.28,IMU,-24.90,-246.09,-945.31,1.83,26.68,0.85,127.80,86.25,-26.10,29.6
2026/04/15 14:29:48.38,IMU,76.17,-67.38,-997.07,-50.67,19.78,5.35,125.55,88.95,-25.35,29.6
2026/04/15 14:29:48.49,IMU,69.82,162.11,-1122.56,-9.96,4.67,9.29,125.55,91.20,-24.60,29.6
2026/04/15 14:29:48.59,IMU,-21.00,-65.92,-997.07,29.53,-1.18,3.95,125.10,89.55,-24.90,29.7
2026/04/15 14:29:48.69,IMU,-33.20,-229.00,-952.64,-21.70,11.24,7.95,125.25,89.70,-26.40,29.6
2026/04/15 14:29:48.79,IMU,26.86,69.82,-1035.16,-38.74,22.34,6.62,122.70,91.65,-25.35,29.7
2026/04/15 14:29:48.89,IMU,69.82,87.89,-1060.06,21.36,9.69,7.82,122.40,93.30,-24.15,29.4
2026/04/15 14:29:48.99,IMU,70.31,-200.68,-915.04,22.53,-12.78,9.62,122.25,91.65,-26.10,29.6
2026/04/15 14:29:49.09,IMU,-50.29,-136.72,-958.50,-33.71,-8.88,11.15,122.10,90.60,-27.30,29.5
2026/04/15 14:29:49.19,IMU,-48.34,126.95,-1087.40,-12.15,11.40,5.85,122.70,93.90,-24.00,29.3
2026/04/15 14:29:49.29,IMU,98.63,-3.91,-1000.98,40.85,7.00,4.57,122.40,93.00,-26.70,29.6
2026/04/15 14:29:49.39,IMU,98.14,-242.68,-915.04,5.04,-22.73,11.63,119.40,89.70,-26.40,29.8
2026/04/15 14:29:49.49,IMU,-59.57,3.42,-1029.30,-30.01,-25.37,16.41,122.25,91.65,-24.60,29.5
2026/04/15 14:29:49.60,IMU,-45.41,109.86,-1100.59,27.49,5.44,4.64,122.25,93.15,-25.35,29.6
2026/04/15 14:29:49.70,IMU,89.84,-168.46,-955.57,35.18,5.21,6.89,120.75,89.70,-25.05,29.7
2026/04/15 14:29:49.80,IMU,87.40,-152.83,-959.96,-21.21,-29.19,12.56,121.50,89.40,-25.05,29.6
2026/04/15 14:29:49.90,IMU,-39.55,118.16,-1113.77,-9.26,-30.36,11.92,123.15,91.80,-24.90,29.5
2026/04/15 14:29:50.00,IMU,-63.96,-7.32,-1056.64,42.42,-4.35,1.03,125.25,90.45,-24.00,29.5
2026/04/15 14:29:50.10,IMU,53.71,-233.40,-966.31,9.69,2.91,4.14,123.60,88.05,-26.25,29.4
2026/04/15 14:29:50.20,IMU,87.40,-40.04,-1009.28,-28.47,-16.86,7.45,124.05,88.95,-25.80,29.6
2026/04/15 14:29:50.30,IMU,-30.27,115.23,-1102.54,16.15,-20.10,6.05,123.15,90.30,-24.45,29.5
2026/04/15 14:29:50.40,IMU,-58.59,-135.74,-982.91,37.70,-9.93,4.42,125.10,87.30,-25.20,29.1
2026/04/15 14:29:50.50,IMU,13.67,-193.85,-946.29,-19.32,9.02,8.21,125.40,88.35,-24.90,29.5
2026/04/15 14:29:50.60,IMU,41.50,81.05,-1077.64,-23.78,4.74,7.67,125.10,90.60,-25.50,29.6
2026/04/15 14:29:50.70,IMU,44.43,57.62,-1047.36,28.02,-7.35,6.11,124.35,88.80,-24.15,29.6
2026/04/15 14:29:50.80,IMU,-23.44,-205.08,-955.57,15.23,-6.21,4.42,124.80,87.45,-26.10,29.3
2026/04/15 14:29:50.90,IMU,-55.66,-100.10,-977.05,-35.74,10.69,6.83,124.05,87.45,-25.80,29.4
2026/04/15 14:29:51.00,IMU,25.88,121.58,-1106.93,-7.69,23.29,5.40,123.15,89.85,-22.65,29.3
2026/04/15 14:29:51.11,IMU,95.70,-73.24,-999.51,28.66,9.26,3.83,122.25,88.95,-25.05,29.5
2026/04/15 14:29:51.21,IMU,5.37,-227.05,-954.59,-13.03,-4.84,9.54,122.70,87.00,-25.80,29.5
2026/04/15 14:29:51.31,IMU,-82.03,35.64,-1069.82,-36.92,13.14,7.60,123.90,91.05,-24.15,29.6
2026/04/15 14:29:51.41,IMU,-2.93,84.47,-1089.36,14.20,35.36,1.50,121.35,90.60,-25.20,29.4
2026/04/15 14:29:51.51,IMU,114.26,-170.90,-968.26,16.73,19.24,1.73,119.40,90.15,-26.40,29.6
2026/04/15 14:29:51.61,IMU,43.95,-143.55,-979.49,-34.00,-4.48,5.63,118.20,87.75,-26.10,29.1
2026/04/15 14:29:51.71,IMU,-77.15,107.42,-1128.91,-14.89,8.66,6.16,118.35,91.80,-23.40,29.1
2026/04/15 14:29:51.81,IMU,-25.39,-16.11,-1027.34,28.08,30.40,-0.50,118.20,90.90,-25.05,29.4
2026/04/15 14:29:51.91,IMU,119.14,-226.07,-933.11,-5.46,19.03,5.10,114.75,89.55,-26.25,29.5
2026/04/15 14:29:52.01,IMU,-9.28,24.41,-915.04,-34.12,-17.51,7.40,115.50,89.55,-26.25,29.4
2026/04/15 14:29:52.11,IMU,365.23,21.00,-437.50,20.16,-1.11,10.58,114.15,90.15,-24.60,29.4
2026/04/15 14:29:52.21,IMU,88.87,-105.96,-995.12,16.18,-20.87,-21.59,116.40,94.35,-25.05,29.6
2026/04/15 14:29:52.31,IMU,-54.20,-88.87,-1004.88,12.95,-17.98,-61.15,118.35,93.00,-26.25,29.5
2026/04/15 14:29:52.41,IMU,-23.93,-26.37,-976.56,-13.43,-23.39,-103.93,121.95,92.40,-26.10,29.2
2026/04/15 14:29:52.51,IMU,-77.64,92.29,-1102.05,3.32,-2.67,-127.35,126.75,93.45,-25.05,29.6
2026/04/15 14:29:52.61,IMU,2.44,80.57,-952.64,-14.64,5.69,-105.44,128.85,92.70,-24.60,29.4
2026/04/15 14:29:52.71,IMU,59.57,98.14,-1018.07,-19.11,5.56,-96.69,132.45,92.55,-26.25,29.4
2026/04/15 14:29:52.81,IMU,98.14,109.86,-1041.99,-9.78,4.05,-67.47,134.25,93.00,-24.45,29.6
2026/04/15 14:29:52.91,IMU,151.37,84.96,-1056.64,1.12,8.30,-38.31,134.85,90.90,-24.60,29.4
2026/04/15 14:29:53.01,IMU,77.15,91.80,-1022.46,1.95,-4.50,-25.76,136.20,88.20,-24.60,29.4
2026/04/15 14:29:53.11,IMU,65.43,108.40,-989.75,-3.44,-1.05,-11.98,138.30,89.10,-24.90,29.6
2026/04/15 14:29:53.21,IMU,11.23,99.12,-992.68,-4.30,3.78,-14.48,136.65,88.65,-25.80,29.1
2026/04/15 14:29:53.32,IMU,80.57,121.09,-1018.07,-4.69,4.92,-9.77,138.45,88.65,-24.60,29.4
2026/04/15 14:29:53.42,IMU,47.36,142.58,-1009.77,0.47,1.90,-4.40,137.40,88.20,-26.10,29.5
2026/04/15 14:29:53.52,IMU,48.34,116.21,-927.73,-2.91,-1.92,-9.87,137.40,88.20,-24.00,29.5
2026/04/15 14:29:53.62,IMU,61.52,164.06,-999.51,-13.28,-3.27,-12.93,137.85,89.10,-23.10,29.4
2026/04/15 14:29:53.72,IMU,47.85,195.31,-1026.37,-3.40,0.55,-20.79,138.15,88.65,-24.00,29.6
2026/04/15 14:29:53.82,IMU,32.23,138.67,-939.45,0.31,-1.60,-13.25,138.60,88.35,-24.45,29.5
2026/04/15 14:29:53.92,IMU,77.64,143.55,-958.50,-6.18,5.95,-0.48,137.25,88.35,-24.15,29.6
2026/04/15 14:29:54.02,IMU,-11.72,158.20,-1089.84,-5.01,0.58,19.40,137.55,89.10,-23.40,29.6
2026/04/15 14:29:54.12,IMU,26.86,250.49,-1165.53,-2.05,-0.44,11.58,137.55,89.85,-24.90,29.1
2026/04/15 14:29:54.22,IMU,-38.09,185.06,-890.63,1.31,-9.44,-6.36,138.90,90.15,-23.25,29.4
2026/04/15 14:29:54.32,IMU,-10.74,171.88,-965.33,-10.65,8.29,-7.11,138.90,91.20,-22.80,29.5
2026/04/15 14:29:54.42,IMU,-4.39,182.62,-1000.98,-9.73,3.08,-13.26,138.90,90.45,-23.25,29.2
2026/04/15 14:29:54.52,IMU,43.95,238.28,-1024.90,-7.67,-5.17,-9.28,138.60,90.30,-23.40,29.4
2026/04/15 14:29:54.62,IMU,31.74,289.06,-1020.51,4.05,-1.28,-0.66,139.80,91.50,-20.85,29.4
2026/04/15 14:29:54.72,IMU,-45.41,167.97,-951.66,1.15,-4.93,5.00,139.20,91.65,-22.50,29.1
2026/04/15 14:29:54.82,IMU,54.20,78.12,-860.84,-12.30,7.37,4.37,139.20,90.45,-22.05,29.5
2026/04/15 14:29:54.92,IMU,32.23,204.10,-1031.25,-0.84,-0.37,2.87,141.60,92.25,-21.15,29.4
2026/04/15 14:29:55.02,IMU,-48.34,168.46,-1051.27,24.30,5.49,6.33,138.45,93.45,-21.75,29.1
2026/04/15 14:29:55.12,IMU,-13.67,221.68,-970.70,16.50,-0.40,-6.31,139.50,90.90,-22.05,29.1
2026/04/15 14:29:55.22,IMU,22.46,202.64,-915.04,-3.66,-8.94,-15.16,137.40,91.65,-22.80,29.4
2026/04/15 14:29:55.32,IMU,-14.65,247.56,-1001.95,-14.78,2.19,6.72,140.70,90.45,-21.45,29.2
2026/04/15 14:29:55.42,IMU,-11.23,280.27,-1129.88,-3.91,1.79,-20.50,140.10,90.60,-22.35,29.6
2026/04/15 14:29:55.53,IMU,19.53,178.71,-874.51,-8.29,-0.18,-1.32,142.95,94.35,-18.45,29.2
2026/04/15 14:29:55.63,IMU,-2.93,249.51,-1034.18,1.14,-1.17,-10.24,132.00,97.50,-21.15,29.2
