Timestamp,Sensor,AccX,AccY,AccZ,GyrX,GyrY,GyrZ,MagX,MagY,MagZ,Temp
2026/04/13 15:03:58.00,IMU,3.42,102.54,-1031.74,1.51,-13.60,-3.98,-34.50,13.65,-54.75,28.5
2026/04/13 15:03:58.10,IMU,25.88,166.02,-1037.11,-6.44,-0.51,-3.13,-34.65,14.85,-56.70,28.5
2026/04/13 15:03:58.20,IMU,-0.49,166.99,-1004.88,-3.18,-4.66,-3.18,-34.20,15.15,-56.25,28.4
2026/04/13 15:03:58.30,IMU,34.67,166.50,-1020.02,1.95,2.44,-0.63,-35.25,16.20,-56.55,28.6
2026/04/13 15:03:58.40,IMU,-1.46,150.39,-998.05,1.43,0.60,-1.75,-35.25,15.15,-55.20,28.4
2026/04/13 15:03:58.50,IMU,22.95,143.55,-1021.00,0.61,3.84,-2.48,-34.35,15.30,-55.65,28.5
2026/04/13 15:03:58.60,IMU,19.53,155.27,-1002.93,-3.54,13.98,-2.19,-35.85,16.05,-55.65,28.5
2026/04/13 15:03:58.70,IMU,65.43,125.00,-999.02,8.89,35.58,-0.40,-36.75,14.70,-54.45,28.6
2026/04/13 15:03:58.80,IMU,90.82,156.74,-1003.42,-1.17,7.33,3.77,-38.40,14.85,-54.30,28.6
2026/04/13 15:03:58.90,IMU,90.33,134.77,-1011.23,4.95,-4.24,-2.67,-39.60,13.95,-52.95,28.5
2026/04/13 15:03:59.01,IMU,83.50,112.79,-1005.37,0.83,-4.52,-0.14,-38.25,13.65,-55.50,28.7
2026/04/13 15:03:59.11,IMU,66.41,104.49,-1008.79,1.56,-4.31,-3.18,-39.00,14.70,-54.75,28.5
2026/04/13 15:03:59.21,IMU,376.46,116.21,-1278.32,32.61,250.13,22.53,-42.00,14.10,-53.85,28.6
2026/04/13 15:03:59.31,IMU,679.69,9.77,-614.26,-0.93,174.96,28.82,-65.25,8.40,-28.65,28.7
2026/04/13 15:03:59.41,IMU,900.88,-29.79,-303.22,-12.09,250.13,47.47,-69.45,7.95,-15.75,28.7
2026/04/13 15:03:59.51,IMU,1012.70,14.65,23.93,3.83,46.24,-8.34,-68.55,5.40,7.35,28.5
2026/04/13 15:03:59.61,IMU,958.50,-28.81,50.78,0.16,35.07,-1.21,-67.95,7.20,9.60,28.6
2026/04/13 15:03:59.71,IMU,962.40,1.95,-77.15,28.55,-168.66,-25.16,-67.65,7.20,6.45,28.6
2026/04/13 15:03:59.81,IMU,893.07,48.34,-407.23,20.40,-223.97,-37.53,-70.05,11.10,-10.50,28.6
2026/04/13 15:03:59.91,IMU,733.40,123.05,-706.54,3.17,-128.26,-17.98,-67.20,13.65,-27.75,28.4
2026/04/13 15:04:00.01,IMU,505.37,135.25,-833.01,-2.93,-174.40,-24.30,-59.10,15.15,-39.30,28.6
2026/04/13 15:04:00.11,IMU,292.48,107.42,-952.64,-0.22,-163.17,-7.34,-48.15,16.65,-49.35,28.7
2026/04/13 15:04:00.21,IMU,-158.69,159.18,-981.45,6.27,-250.14,-20.40,-31.05,15.75,-56.70,28.6
2026/04/13 15:04:00.31,IMU,-576.66,76.17,-855.47,17.84,-210.89,-10.24,-1.65,14.85,-52.50,28.7
2026/04/13 15:04:00.41,IMU,-810.06,90.82,-595.70,11.05,-161.63,29.36,10.80,15.75,-48.15,28.3
2026/04/13 15:04:00.51,IMU,-850.10,123.05,-401.86,-22.76,-79.90,46.31,19.50,17.70,-40.35,28.7
2026/04/13 15:04:00.61,IMU,-808.59,278.81,-462.40,-15.40,84.52,-2.79,17.10,21.75,-39.45,28.8
2026/04/13 15:04:00.71,IMU,-816.89,217.29,-600.59,7.06,105.24,-0.85,13.35,21.75,-42.75,28.6
2026/04/13 15:04:00.81,IMU,-624.02,215.33,-793.95,23.22,208.65,-6.34,5.10,19.65,-50.10,28.8
2026/04/13 15:04:00.91,IMU,-138.18,125.98,-923.34,35.98,250.13,34.82,-27.00,15.75,-56.10,28.6
2026/04/13 15:04:01.01,IMU,271.48,139.16,-967.77,4.54,26.19,11.40,-47.40,14.40,-46.20,28.9
2026/04/13 15:04:01.11,IMU,171.39,-7.81,-894.04,-25.44,-23.91,-13.95,-46.65,12.90,-48.30,28.6
2026/04/13 15:04:01.21,IMU,106.45,414.55,-883.30,-130.85,-73.44,-68.57,-42.00,22.20,-52.50,28.7
2026/04/13 15:04:01.32,IMU,61.04,579.59,-804.69,-165.75,25.48,-37.39,-38.25,36.75,-48.60,28.7
2026/04/13 15:04:01.42,IMU,76.17,690.43,-764.16,-94.77,30.56,37.25,-39.90,47.55,-38.70,28.8
2026/04/13 15:04:01.52,IMU,75.20,784.18,-623.54,-72.78,-147.69,-16.45,-41.25,50.55,-33.30,28.7
2026/04/13 15:04:01.62,IMU,-26.37,865.23,-612.79,-36.39,-87.43,1.07,-35.40,53.25,-31.80,28.7
2026/04/13 15:04:01.72,IMU,-141.11,785.16,-710.94,55.73,-10.36,-13.79,-32.55,54.45,-30.75,28.6
2026/04/13 15:04:01.82,IMU,-102.54,695.80,-756.84,143.69,59.56,-30.11,-30.30,50.25,-42.75,28.4
2026/04/13 15:04:01.92,IMU,31.25,385.25,-1059.08,123.62,124.02,-0.15,-31.80,34.35,-51.30,28.8
2026/04/13 15:04:02.02,IMU,135.25,286.13,-837.40,63.52,65.95,5.14,-41.70,25.50,-50.25,28.6
2026/04/13 15:04:02.12,IMU,196.29,336.43,-835.94,3.93,-71.11,-28.33,-44.10,21.60,-49.35,28.5
2026/04/13 15:04:02.22,IMU,361.33,289.55,-947.75,-18.41,42.82,25.77,-47.25,22.20,-47.70,28.6
2026/04/13 15:04:02.32,IMU,197.75,171.39,-980.47,6.02,-35.75,-6.38,-46.50,22.95,-46.65,28.6
2026/04/13 15:04:02.42,IMU,278.81,250.98,-1038.57,2.88,-27.10,-10.27,-43.65,21.90,-49.35,28.9
2026/04/13 15:04:02.52,IMU,346.68,175.78,-973.14,141.34,-85.10,45.56,-45.90,14.40,-49.05,28.9
2026/04/13 15:04:02.62,IMU,335.94,-125.00,-1000.98,103.35,-56.14,77.18,-42.60,6.45,-49.80,28.7
2026/04/13 15:04:02.72,IMU,53.71,-272.95,-1085.94,128.31,-50.81,47.92,-36.75,-4.80,-49.80,28.6
2026/04/13 15:04:02.82,IMU,-266.11,-486.82,-631.35,241.31,-109.26,41.68,-30.15,-20.40,-43.65,28.4
2026/04/13 15:04:02.92,IMU,-238.77,-785.64,-502.93,68.19,63.73,-11.08,-27.45,-28.80,-34.95,28.8
2026/04/13 15:04:03.02,IMU,-73.24,-806.64,-752.44,2.75,21.18,11.07,-32.55,-30.15,-32.55,28.6
2026/04/13 15:04:03.12,IMU,-81.05,-844.73,-678.71,-35.20,-9.04,3.22,-32.55,-31.65,-30.75,28.6
2026/04/13 15:04:03.22,IMU,-220.70,-708.01,-381.35,-71.15,-26.92,-2.89,-29.85,-28.95,-33.60,28.6
2026/04/13 15:04:03.32,IMU,-191.89,-566.89,-1116.70,-134.28,99.95,-32.56,-28.50,-19.05,-44.85,28.7
2026/04/13 15:04:03.42,IMU,147.46,-349.12,-799.80,-229.91,222.66,-113.98,-40.80,-7.20,-47.55,28.7
2026/04/13 15:04:03.52,IMU,455.57,553.71,-821.29,-242.35,250.13,-250.14,-59.10,18.90,-37.50,28.7
2026/04/13 15:04:03.62,IMU,519.53,333.98,54.69,13.60,-101.56,-9.11,-64.50,41.55,-23.25,28.7
2026/04/13 15:04:03.73,IMU,598.63,389.16,-488.77,18.84,45.63,54.63,-64.50,36.15,-25.35,28.8
2026/04/13 15:04:03.83,IMU,738.28,443.36,-481.45,-10.11,5.81,6.28,-66.15,32.55,-21.60,28.8
2026/04/13 15:04:03.93,IMU,760.25,394.53,-527.83,21.66,-30.24,15.88,-66.15,32.25,-22.35,28.6
2026/04/13 15:04:04.03,IMU,818.85,332.52,-508.79,-4.31,13.21,51.31,-65.85,27.60,-24.45,28.7
2026/04/13 15:04:04.13,IMU,803.71,300.29,-480.96,-7.90,14.53,48.18,-69.30,22.20,-18.90,28.9
2026/04/13 15:04:04.23,IMU,1355.96,198.24,-790.53,23.10,30.17,-2.09,-69.15,21.60,-20.55,28.4
2026/04/13 15:04:04.33,IMU,542.97,261.72,-631.84,12.98,-131.94,-19.08,-67.80,19.05,-19.65,28.8
2026/04/13 15:04:04.43,IMU,797.85,204.59,-715.33,13.64,-54.88,-17.66,-64.65,20.85,-31.35,28.7
2026/04/13 15:04:04.53,IMU,383.79,86.91,-670.41,27.40,-144.79,1.30,-59.10,18.60,-37.05,28.8
2026/04/13 15:04:04.63,IMU,345.70,204.59,-868.65,32.92,-178.50,-3.66,-53.10,19.50,-42.30,29.0
2026/04/13 15:04:04.73,IMU,-349.61,264.65,-483.40,31.02,-204.93,-20.47,-39.30,14.70,-51.90,28.6
2026/04/13 15:04:04.83,IMU,-90.33,-73.24,-899.90,65.64,-59.71,12.89,-29.70,10.50,-54.75,28.7
2026/04/13 15:04:04.93,IMU,80.57,-75.68,-971.68,-43.81,141.84,50.01,-29.40,7.20,-54.00,28.8
2026/04/13 15:04:05.03,IMU,-21.00,46.39,-1051.76,-61.36,-53.63,-7.62,-32.55,12.30,-54.90,28.6
2026/04/13 15:04:05.13,IMU,-24.41,-9.28,-989.75,-39.08,-61.73,-0.93,-31.50,11.70,-53.70,28.7
2026/04/13 15:04:05.23,IMU,-371.58,173.34,-1025.39,-21.67,-69.10,33.44,-24.45,19.50,-55.35,28.8
2026/04/13 15:04:05.33,IMU,-246.09,248.05,-1000.49,-9.09,-13.62,8.70,-20.40,21.75,-57.90,28.8
2026/04/13 15:04:05.43,IMU,-240.23,138.18,-915.04,35.08,9.97,-3.28,-20.10,20.40,-57.30,28.6
2026/04/13 15:04:05.53,IMU,-235.84,152.83,-980.96,19.18,6.93,10.65,-21.15,18.30,-57.15,28.8
2026/04/13 15:04:05.63,IMU,-202.15,140.14,-920.90,8.47,39.36,-4.28,-23.70,14.85,-57.45,28.8
2026/04/13 15:04:05.73,IMU,-149.90,133.79,-973.14,-5.57,16.18,-4.83,-24.15,15.90,-55.80,28.5
2026/04/13 15:04:05.83,IMU,-143.07,121.09,-957.03,-3.34,2.65,-0.09,-28.20,16.65,-57.00,28.8
2026/04/13 15:04:05.93,IMU,-129.88,124.02,-959.96,-4.09,-3.90,2.62,-28.20,16.20,-54.75,28.7
2026/04/13 15:04:06.03,IMU,-110.84,125.49,-1013.67,-0.64,8.02,0.75,-28.80,17.25,-55.65,28.6
2026/04/13 15:04:06.14,IMU,-110.35,136.23,-986.82,2.54,-7.03,-2.95,-30.90,13.95,-51.15,28.8
2026/04/13 15:04:06.24,IMU,-118.65,144.04,-1011.72,-1.53,-1.17,-0.89,-27.75,17.25,-56.10,28.7
2026/04/13 15:04:06.34,IMU,-133.79,132.81,-996.58,-0.06,-21.11,-1.81,-27.30,17.25,-54.90,28.6
2026/04/13 15:04:06.45,IMU,-191.41,126.95,-990.72,9.50,-15.27,-0.89,-26.40,16.95,-57.75,28.5
2026/04/13 15:04:06.55,IMU,-192.87,103.03,-998.05,4.09,5.86,2.15,-25.65,15.90,-56.55,28.7
2026/04/13 15:04:06.65,IMU,-151.86,49.80,-954.59,-25.41,22.75,0.08,-27.45,16.20,-56.55,28.7
2026/04/13 15:04:06.75,IMU,-142.58,76.66,-967.29,1.20,1.60,-1.47,-27.75,16.05,-57.45,28.6
2026/04/13 15:04:06.85,IMU,-133.30,131.84,-978.52,2.13,3.27,-0.53,-27.00,17.25,-56.70,28.8
2026/04/13 15:04:06.95,IMU,-129.88,152.34,-988.28,-0.78,11.25,3.15,-29.25,18.00,-56.40,28.6
2026/04/13 15:04:07.05,IMU,-72.27,137.21,-1011.23,0.19,20.61,1.36,-28.80,17.25,-57.15,28.7
2026/04/13 15:04:07.15,IMU,-64.45,140.14,-1005.37,-0.92,10.63,0.79,-31.20,17.70,-55.50,28.8
2026/04/13 15:04:07.25,IMU,-63.96,132.32,-1014.65,-0.19,1.82,-1.84,-31.05,16.80,-56.70,28.9
2026/04/13 15:04:07.35,IMU,-65.92,129.88,-1024.90,0.19,-1.21,-2.39,-32.85,16.80,-55.35,28.8
2026/04/13 15:04:07.45,IMU,-55.18,127.93,-999.02,2.50,2.88,2.24,-30.30,18.00,-56.70,28.8
2026/04/13 15:04:07.55,IMU,-66.41,131.84,-977.54,1.40,-5.55,-1.29,-30.90,16.65,-55.80,28.7
2026/04/13 15:04:07.65,IMU,-44.92,130.86,-1007.81,2.07,8.63,-1.93,-30.45,16.20,-54.00,28.6
2026/04/13 15:04:07.75,IMU,-58.59,152.34,-1014.16,1.75,-1.47,0.03,-31.50,17.40,-55.80,28.7
2026/04/13 15:04:07.85,IMU,-51.27,113.77,-1001.95,-1.34,9.39,0.52,-30.90,15.90,-56.25,28.9
2026/04/13 15:04:07.95,IMU,-36.62,126.46,-1016.11,-2.08,8.62,1.03,-32.55,18.00,-55.35,28.6
2026/04/13 15:04:08.05,IMU,-25.88,136.23,-1012.70,-1.86,3.72,-1.15,-31.95,16.20,-55.80,28.8
2026/04/13 15:04:08.15,IMU,-25.39,125.98,-992.19,1.82,10.81,1.63,-33.30,16.80,-54.30,28.7
2026/04/13 15:04:08.25,IMU,-8.30,145.02,-1000.00,0.60,6.47,1.11,-34.20,16.20,-55.20,28.8
2026/04/13 15:04:08.35,IMU,5.86,131.84,-993.16,1.18,3.26,1.15,-34.65,15.75,-54.30,28.7
2026/04/13 15:04:08.45,IMU,-77.64,133.30,-937.99,-1.89,-3.35,-0.82,-34.20,14.70,-54.45,28.9
2026/04/13 15:04:08.55,IMU,0.00,300.29,-1054.69,0.54,13.32,-0.32,-34.50,18.90,-55.20,28.7
2026/04/13 15:04:08.65,IMU,150.39,282.23,-984.86,-48.97,46.71,6.01,-36.90,19.50,-54.30,28.6
2026/04/13 15:04:08.76,IMU,105.47,205.08,-957.52,19.18,-3.29,-12.12,-37.50,21.15,-54.45,28.9
2026/04/13 15:04:08.86,IMU,77.15,158.69,-1003.42,1.98,-18.30,-4.21,-37.65,19.50,-55.35,28.8
2026/04/13 15:04:08.96,IMU,62.01,202.15,-995.61,10.78,-11.69,0.73,-36.90,19.05,-54.60,28.7
2026/04/13 15:04:09.06,IMU,9.28,137.70,-975.59,-0.12,1.89,1.56,-34.65,18.30,-55.35,28.6
2026/04/13 15:04:09.16,IMU,67.38,187.99,-991.21,-9.66,14.89,2.18,-37.50,18.90,-54.45,28.9
2026/04/13 15:04:09.26,IMU,58.11,210.94,-994.63,1.27,6.12,-5.81,-36.75,18.90,-55.20,28.8
2026/04/13 15:04:09.36,IMU,119.63,178.71,-983.40,1.62,11.11,8.19,-37.65,21.45,-52.80,28.5
2026/04/13 15:04:09.46,IMU,67.38,189.94,-1010.74,3.37,0.59,-0.36,-39.15,20.25,-54.90,28.9
2026/04/13 15:04:09.56,IMU,110.84,169.92,-1007.81,6.11,0.70,-0.05,-39.30,20.40,-54.45,28.7
2026/04/13 15:04:09.66,IMU,84.47,155.27,-1006.35,5.73,-1.30,8.34,-37.95,18.00,-54.90,28.8
2026/04/13 15:04:09.76,IMU,75.20,180.66,-1018.07,2.53,0.99,9.31,-39.90,18.00,-52.80,28.9
2026/04/13 15:04:09.86,IMU,83.50,177.73,-984.38,-4.14,0.15,-0.01,-38.55,19.65,-54.00,28.9
2026/04/13 15:04:09.96,IMU,167.48,172.85,-1021.48,23.85,-11.73,-3.80,-38.40,17.25,-55.65,28.9
2026/04/13 15:04:10.06,IMU,64.94,97.66,-969.73,18.07,-8.69,-13.11,-37.05,15.45,-53.70,28.7
2026/04/13 15:04:10.16,IMU,56.64,-11.23,-946.78,4.05,16.28,-17.06,-39.15,16.50,-53.85,28.7
2026/04/13 15:04:10.26,IMU,209.96,104.98,-1028.81,-5.30,60.50,-10.48,-40.05,15.90,-52.95,28.9
2026/04/13 15:04:10.36,IMU,191.41,118.16,-972.66,-6.70,6.76,-8.33,-43.05,17.40,-51.90,29.0
2026/04/13 15:04:10.46,IMU,210.45,163.57,-1001.46,-0.07,-9.45,-5.74,-43.35,18.15,-51.60,28.6
2026/04/13 15:04:10.56,IMU,185.55,169.92,-992.68,3.46,-6.18,-7.61,-41.85,20.85,-53.40,28.8
2026/04/13 15:04:10.66,IMU,182.62,120.61,-979.49,1.10,2.18,-5.10,-42.00,17.25,-52.80,28.7
2026/04/13 15:04:10.76,IMU,167.48,125.98,-972.17,10.33,11.23,-9.49,-43.20,18.30,-52.05,28.7
2026/04/13 15:04:10.86,IMU,219.73,136.23,-1000.49,-2.52,18.50,-7.79,-43.65,15.90,-51.90,28.7
2026/04/13 15:04:10.96,IMU,241.21,115.23,-946.78,1.09,8.69,-2.37,-44.25,17.55,-51.00,28.7
2026/04/13 15:04:11.07,IMU,242.68,117.68,-979.98,2.98,4.99,1.77,-46.65,17.70,-51.60,28.8
2026/04/13 15:04:11.17,IMU,259.28,117.68,-997.07,5.11,4.96,0.82,-46.65,16.20,-51.15,28.9
2026/04/13 15:04:11.27,IMU,264.16,114.75,-960.45,8.16,11.03,5.00,-47.40,17.40,-51.15,28.9
2026/04/13 15:04:11.37,IMU,283.69,102.54,-979.00,2.69,4.76,-0.33,-46.65,15.45,-50.85,28.8
2026/04/13 15:04:11.47,IMU,279.79,68.85,-956.05,4.50,14.55,0.47,-47.10,17.70,-49.80,29.0
2026/04/13 15:04:11.57,IMU,285.64,58.11,-833.50,2.82,0.81,3.27,-49.05,15.75,-48.15,28.9
2026/04/13 15:04:11.67,IMU,351.07,121.58,-959.96,5.69,9.31,1.31,-50.10,18.00,-48.15,28.6
2026/04/13 15:04:11.77,IMU,359.38,69.34,-943.36,3.11,-3.32,-1.74,-50.55,16.80,-48.15,28.8
2026/04/13 15:04:11.87,IMU,358.40,84.47,-955.57,8.47,-8.39,4.26,-49.95,16.65,-48.60,28.8
2026/04/13 15:04:11.97,IMU,344.73,53.71,-934.08,1.10,3.82,3.92,-50.70,15.15,-48.60,29.0
2026/04/13 15:04:12.07,IMU,350.10,41.02,-931.64,4.12,10.70,3.98,-50.10,15.75,-48.45,28.9
2026/04/13 15:04:12.17,IMU,364.75,59.57,-950.68,4.43,0.11,10.90,-49.05,15.75,-48.45,28.9
2026/04/13 15:04:12.27,IMU,344.24,62.99,-973.14,4.87,-13.69,-7.52,-48.45,17.40,-49.35,28.9
2026/04/13 15:04:12.37,IMU,300.78,41.50,-929.69,0.43,-50.66,-2.50,-45.30,16.05,-51.00,28.7
2026/04/13 15:04:12.47,IMU,297.36,56.15,-1036.62,-9.85,-110.37,40.09,-43.50,15.75,-51.30,28.8
2026/04/13 15:04:12.57,IMU,81.05,-9.77,-1022.46,-9.49,-5.32,87.75,-41.10,13.20,-53.70,28.9
2026/04/13 15:04:12.67,IMU,83.98,-7.32,-1036.62,0.28,0.63,36.17,-40.05,12.90,-53.70,28.7
2026/04/13 15:04:12.77,IMU,244.63,-89.36,-1097.66,-2.27,119.44,-9.08,-44.25,11.10,-50.70,28.8
2026/04/13 15:04:12.87,IMU,500.49,77.64,-1094.24,10.36,58.82,-10.63,-51.30,12.60,-45.90,28.7
2026/04/13 15:04:12.97,IMU,363.28,14.65,-911.62,9.82,14.31,-2.87,-52.35,14.55,-44.55,28.8
2026/04/13 15:04:13.07,IMU,394.53,34.67,-924.80,-2.63,14.76,-4.01,-52.95,12.15,-43.20,28.9
2026/04/13 15:04:13.17,IMU,383.79,17.58,-819.82,2.59,25.90,-21.60,-54.60,13.80,-43.05,28.8
2026/04/13 15:04:13.27,IMU,470.70,23.44,-910.16,14.18,38.38,-64.12,-60.75,16.05,-38.70,28.6
2026/04/13 15:04:13.37,IMU,593.75,74.71,-749.51,7.47,-77.34,-11.96,-55.05,20.10,-41.85,28.8
2026/04/13 15:04:13.48,IMU,198.24,33.69,-973.63,-20.91,-2.13,69.77,-49.80,16.80,-48.45,28.9
2026/04/13 15:04:13.58,IMU,368.65,47.36,-947.75,-14.93,0.17,3.86,-51.00,16.20,-45.45,28.9
2026/04/13 15:04:13.68,IMU,321.29,104.00,-954.59,-0.82,16.08,2.18,-52.50,16.95,-44.70,28.9
2026/04/13 15:04:13.78,IMU,360.35,61.04,-987.30,12.67,-40.30,-19.66,-53.10,16.05,-48.15,28.8
2026/04/13 15:04:13.88,IMU,426.27,40.53,-825.20,-2.26,12.89,14.26,-54.45,18.15,-44.70,28.8
2026/04/13 15:04:13.98,IMU,236.82,19.04,-1023.44,-29.98,-0.79,28.18,-52.05,16.80,-46.35,28.8
2026/04/13 15:04:14.08,IMU,345.70,124.51,-857.42,9.75,-48.56,-14.93,-52.50,17.40,-46.50,28.7
2026/04/13 15:04:14.18,IMU,235.84,107.91,-919.43,5.30,-44.21,8.50,-48.90,17.40,-49.05,29.0
2026/04/13 15:04:14.28,IMU,69.34,-11.23,-871.09,88.55,-61.55,42.40,-43.95,9.60,-49.95,28.7
2026/04/13 15:04:14.38,IMU,188.96,71.78,-1027.34,11.77,6.89,48.95,-44.10,6.75,-51.90,29.0
2026/04/13 15:04:14.48,IMU,66.41,-298.34,-1093.75,26.47,-78.83,24.29,-37.95,5.40,-54.90,28.9
2026/04/13 15:04:14.58,IMU,98.63,-135.25,-1134.77,31.65,27.21,18.53,-36.90,2.40,-54.30,28.6
2026/04/13 15:04:14.68,IMU,-26.37,-141.60,-1123.54,88.83,-0.07,-15.72,-37.20,-3.15,-52.80,28.7
2026/04/13 15:04:14.78,IMU,83.98,-280.27,-1072.75,-19.72,50.87,-18.15,-37.65,-5.85,-49.95,28.7
2026/04/13 15:04:14.88,IMU,95.21,-312.01,-987.30,59.94,-24.79,6.42,-40.65,-6.90,-48.45,29.0
2026/04/13 15:04:14.98,IMU,46.39,-409.18,-950.20,18.89,-17.85,15.44,-36.90,-9.60,-48.90,28.8
2026/04/13 15:04:15.08,IMU,144.53,-401.86,-742.19,37.31,-8.70,8.28,-35.85,-13.80,-47.40,28.8
2026/04/13 15:04:15.18,IMU,13.67,-473.63,-863.77,3.38,27.77,-9.79,-35.25,-15.45,-46.80,29.0
2026/04/13 15:04:15.29,IMU,341.31,-461.43,-959.47,-12.12,-25.89,-16.86,-38.25,-13.95,-47.25,28.9
2026/04/13 15:04:15.39,IMU,64.94,-477.05,-898.93,-5.82,-12.34,-1.44,-39.15,-14.10,-47.40,28.8
2026/04/13 15:04:15.49,IMU,59.57,-433.11,-881.35,-12.25,0.90,-3.76,-39.15,-10.35,-46.35,28.8
2026/04/13 15:04:15.59,IMU,91.80,-396.00,-968.75,-35.17,19.70,-20.97,-39.00,-8.70,-48.60,28.9
2026/04/13 15:04:15.69,IMU,146.97,-351.56,-979.00,-12.10,8.51,-4.44,-41.85,-7.95,-48.30,28.8
2026/04/13 15:04:15.79,IMU,118.65,-350.59,-947.75,13.08,-7.01,5.27,-43.50,-7.65,-48.45,28.6
2026/04/13 15:04:15.89,IMU,97.66,-427.25,-957.03,22.24,-16.14,13.90,-41.55,-7.50,-48.00,28.7
2026/04/13 15:04:15.99,IMU,-48.34,-492.68,-836.91,14.56,-17.36,31.28,-37.80,-11.70,-47.55,28.8
2026/04/13 15:04:16.09,IMU,-34.67,-543.95,-774.41,49.06,-35.53,30.85,-35.40,-16.50,-46.65,28.9
2026/04/13 15:04:16.20,IMU,-60.06,-571.78,-895.51,2.94,64.21,-5.05,-34.50,-18.60,-45.00,29.0
2026/04/13 15:04:16.30,IMU,93.75,-587.40,-839.36,17.08,75.20,-10.13,-39.90,-18.30,-42.00,28.8
2026/04/13 15:04:16.40,IMU,237.30,-601.56,-775.39,21.13,78.11,11.42,-43.50,-20.55,-37.65,28.8
2026/04/13 15:04:16.50,IMU,-21.97,-647.95,60.55,-19.41,-123.49,-13.34,-41.10,-21.60,-38.55,28.9
2026/04/13 15:04:16.60,IMU,-258.30,-812.01,-872.07,96.96,172.27,41.17,-44.40,-22.35,-35.70,28.7
2026/04/13 15:04:16.70,IMU,80.08,-802.73,-727.05,85.77,30.72,54.36,-41.85,-26.85,-33.15,28.9
2026/04/13 15:04:16.80,IMU,-68.85,-852.05,-717.29,126.55,5.01,-8.49,-40.65,-31.95,-23.55,28.6
2026/04/13 15:04:16.90,IMU,277.83,-910.64,-447.75,134.76,40.45,-9.08,-41.70,-34.35,-14.85,28.9
2026/04/13 15:04:17.00,IMU,228.52,-918.95,-199.22,62.66,-7.18,5.60,-43.20,-34.65,-4.50,28.5
2026/04/13 15:04:17.10,IMU,128.91,-1018.55,25.39,32.89,8.87,8.33,-42.00,-33.90,-0.90,28.9
2026/04/13 15:04:17.20,IMU,175.78,-1024.41,114.75,-28.77,-11.63,4.37,-39.45,-33.60,1.50,28.8
2026/04/13 15:04:17.30,IMU,-1290.04,-2000.00,-2000.00,-250.14,-247.17,2.26,-40.05,-33.75,-13.95,28.7
2026/04/13 15:04:17.40,IMU,-339.36,-775.39,-711.43,-5.05,49.50,-0.31,-30.90,-23.40,-38.85,28.9
2026/04/13 15:04:17.50,IMU,167.97,-624.51,-916.50,-31.36,-10.51,-23.98,-37.65,-20.55,-42.75,28.8
2026/04/13 15:04:17.60,IMU,-76.66,-619.63,-800.78,14.49,-8.52,25.43,-34.95,-20.10,-41.10,28.9
2026/04/13 15:04:17.70,IMU,-19.04,-541.99,-812.50,7.60,-6.82,8.22,-33.75,-21.60,-41.10,28.8
2026/04/13 15:04:17.80,IMU,-140.14,-533.20,-615.72,-79.97,-30.79,-55.56,-32.70,-23.40,-40.05,28.9
2026/04/13 15:04:17.90,IMU,-33.20,-209.96,-807.13,-250.14,55.18,-74.24,-30.90,-10.20,-52.20,28.8
2026/04/13 15:04:18.00,IMU,-82.52,207.52,-1017.58,-128.07,-67.94,-6.03,-35.25,15.15,-57.00,28.8
2026/04/13 15:04:18.10,IMU,-82.52,203.13,-968.26,40.04,-28.08,-20.25,-30.15,21.90,-56.55,29.0
2026/04/13 15:04:18.20,IMU,-154.30,200.68,-905.27,-21.85,10.66,5.57,-28.50,20.25,-57.15,29.0
2026/04/13 15:04:18.30,IMU,-127.44,173.83,-1007.81,21.47,10.60,-10.60,-29.85,22.20,-57.15,28.6
2026/04/13 15:04:18.40,IMU,-127.44,189.94,-979.00,5.77,-1.44,3.34,-30.60,20.55,-56.70,28.9
2026/04/13 15:04:18.51,IMU,-137.70,166.50,-955.57,-6.79,2.02,2.47,-29.25,19.50,-56.10,28.8
2026/04/13 15:04:18.61,IMU,-148.93,205.08,-1005.37,8.28,3.76,2.70,-29.70,20.40,-56.55,29.0
2026/04/13 15:04:18.71,IMU,-129.39,157.23,-984.38,20.11,15.59,5.32,-32.25,17.70,-56.55,28.9
2026/04/13 15:04:18.81,IMU,-66.41,162.60,-997.56,3.64,11.84,0.09,-31.50,17.40,-56.55,28.7
2026/04/13 15:04:18.91,IMU,-82.03,121.58,-1038.57,11.02,0.86,-1.86,-32.10,17.25,-58.20,28.8
2026/04/13 15:04:19.01,IMU,-100.59,141.11,-984.86,-3.62,2.27,5.37,-30.30,15.30,-57.45,29.1
2026/04/13 15:04:19.11,IMU,-73.24,134.28,-1006.84,6.94,-1.15,-2.71,-29.85,16.80,-58.20,28.7
2026/04/13 15:04:19.21,IMU,-86.91,117.68,-1029.30,0.28,-3.04,-0.58,-31.20,13.95,-57.75,28.8
2026/04/13 15:04:19.31,IMU,-83.01,132.32,-1004.39,-1.82,-3.69,0.05,-30.30,15.75,-56.70,28.9
2026/04/13 15:04:19.41,IMU,-129.39,159.18,-990.72,-7.37,-13.05,1.79,-32.55,18.75,-56.10,28.6
2026/04/13 15:04:19.51,IMU,-144.53,111.82,-1014.65,4.76,-1.30,-0.43,-29.70,16.20,-57.75,28.8
2026/04/13 15:04:19.61,IMU,-155.27,125.49,-959.96,-0.21,-0.75,2.89,-28.20,13.20,-59.85,28.7
2026/04/13 15:04:19.71,IMU,-137.70,143.07,-991.21,-7.04,4.11,3.82,-26.85,16.20,-57.30,28.7
2026/04/13 15:04:19.81,IMU,-94.73,175.78,-1006.35,-1.13,-3.14,-1.38,-26.25,16.05,-57.15,29.0
2026/04/13 15:04:19.91,IMU,-132.32,101.56,-966.31,-2.89,1.85,-1.93,-26.85,15.90,-53.70,28.8
2026/04/13 15:04:20.01,IMU,-97.17,142.58,-1024.90,-13.05,17.50,6.27,-23.85,15.45,-51.90,29.0
2026/04/13 15:04:20.11,IMU,-126.46,218.26,-990.72,-3.51,-0.47,-1.89,-25.65,16.95,-51.15,28.5
2026/04/13 15:04:20.21,IMU,-69.34,192.38,-978.03,-5.11,0.11,2.05,-25.80,16.50,-52.80,29.0
2026/04/13 15:04:20.31,IMU,-81.54,198.73,-997.07,7.05,2.07,-4.92,-26.85,16.95,-52.95,29.1
2026/04/13 15:04:20.41,IMU,-92.77,191.41,-999.51,-11.22,4.05,7.15,-26.55,16.80,-51.75,28.8
2026/04/13 15:04:20.51,IMU,-85.94,186.52,-1000.98,-1.13,2.58,0.19,-25.20,17.25,-53.85,28.8
2026/04/13 15:04:20.61,IMU,-81.54,231.45,-1034.18,-1.97,-0.85,4.56,-26.40,17.70,-52.65,28.9
2026/04/13 15:04:20.71,IMU,-55.18,188.96,-923.83,-1.34,1.75,2.61,-27.00,16.80,-53.10,28.9
2026/04/13 15:04:20.81,IMU,-89.84,189.94,-971.19,-1.42,7.29,4.04,-25.50,18.00,-52.50,28.7
2026/04/13 15:04:20.92,IMU,-94.73,242.68,-1013.67,-2.02,-1.78,-10.85,-26.25,18.30,-54.90,28.6
2026/04/13 15:04:21.02,IMU,-90.82,147.95,-934.08,1.98,6.96,-11.46,-26.40,17.40,-52.65,28.7
2026/04/13 15:04:21.12,IMU,-3.91,319.34,-998.54,-43.26,15.89,13.56,-28.20,20.85,-53.40,28.7
2026/04/13 15:04:21.22,IMU,8.30,342.29,-921.39,2.69,5.13,-4.24,-28.80,21.45,-53.85,28.8
2026/04/13 15:04:21.32,IMU,-52.25,71.78,-915.53,9.75,7.07,-15.61,-28.65,20.40,-54.45,28.9
2026/04/13 15:04:21.42,IMU,-7.32,285.16,-1029.79,-41.06,21.52,11.98,-32.10,19.80,-51.30,28.9
2026/04/13 15:04:21.52,IMU,1.46,284.18,-903.32,-1.33,15.85,-1.80,-29.40,21.90,-52.65,28.8
2026/04/13 15:04:21.62,IMU,41.99,327.15,-961.91,-7.13,11.15,-1.47,-31.80,22.95,-53.55,28.8
2026/04/13 15:04:21.72,IMU,61.04,308.59,-957.52,2.74,0.39,-1.24,-32.85,23.25,-54.30,28.6
2026/04/13 15:04:21.82,IMU,-6.35,300.78,-965.82,10.82,7.45,-7.95,-31.35,24.75,-52.80,29.0
2026/04/13 15:04:21.92,IMU,31.25,305.66,-960.45,0.58,3.97,1.24,-32.25,24.30,-53.70,28.6
2026/04/13 15:04:22.02,IMU,95.70,266.11,-963.87,-6.24,3.58,7.67,-33.00,26.10,-54.00,28.7
2026/04/13 15:04:22.12,IMU,78.12,306.15,-1007.81,21.83,-15.14,-3.89,-32.85,23.70,-52.80,29.0
2026/04/13 15:04:22.22,IMU,63.48,270.51,-985.84,4.52,-9.05,1.12,-29.70,21.60,-52.95,28.7
2026/04/13 15:04:22.32,IMU,-18.07,275.39,-927.25,12.45,-11.34,-0.34,-31.80,18.75,-53.10,28.8
2026/04/13 15:04:22.42,IMU,-25.88,206.54,-999.51,10.03,-9.00,2.38,-33.30,19.80,-50.25,29.1
2026/04/13 15:04:22.52,IMU,-113.28,190.43,-1058.11,60.69,-28.30,-5.13,-30.60,16.50,-52.50,29.0
2026/04/13 15:04:22.62,IMU,-49.32,47.36,-970.21,16.37,-10.33,-6.94,-28.50,14.10,-54.30,28.8
2026/04/13 15:04:22.72,IMU,-110.35,79.10,-1043.46,5.96,5.66,-4.78,-30.15,15.90,-54.45,28.9
2026/04/13 15:04:22.82,IMU,-96.19,41.50,-1008.30,-10.70,3.78,2.17,-30.15,15.90,-55.80,28.7
2026/04/13 15:04:22.92,IMU,-95.70,117.19,-1018.07,-1.51,2.35,2.45,-31.05,16.80,-56.10,28.6
2026/04/13 15:04:23.02,IMU,-106.93,77.15,-1005.37,2.85,4.54,-0.36,-32.10,16.50,-56.10,28.7
2026/04/13 15:04:23.12,IMU,-81.05,94.73,-1024.41,-1.26,3.02,-0.92,-31.80,17.25,-55.35,28.9
2026/04/13 15:04:23.22,IMU,-86.91,104.98,-1022.46,0.10,-0.18,-0.08,-31.50,16.95,-57.00,28.8
2026/04/13 15:04:23.33,IMU,-69.82,101.07,-1026.86,7.76,-1.71,-3.76,-31.95,15.45,-56.55,28.9
2026/04/13 15:04:23.43,IMU,-112.79,46.39,-998.05,1.15,-6.60,-4.78,-33.30,14.10,-52.50,28.9
2026/04/13 15:04:23.53,IMU,-117.68,123.54,-1016.11,-3.97,-13.91,-0.63,-30.45,15.15,-55.20,28.9
2026/04/13 15:04:23.63,IMU,-94.24,107.91,-992.19,7.24,-18.61,-6.77,-29.55,16.80,-57.15,28.9
2026/04/13 15:04:23.73,IMU,-173.83,120.12,-960.45,-19.60,5.47,2.20,-28.80,17.25,-57.15,29.0
2026/04/13 15:04:23.83,IMU,-144.53,116.70,-1036.62,22.91,-9.26,1.71,-28.05,16.05,-55.65,29.0
2026/04/13 15:04:23.93,IMU,-178.71,83.01,-971.19,-0.05,-1.02,-2.48,-27.30,15.75,-56.70,28.9
2026/04/13 15:04:24.03,IMU,-126.46,55.18,-962.40,-28.77,10.34,-2.80,-28.65,15.90,-57.30,28.8
2026/04/13 15:04:24.13,IMU,-163.09,111.33,-1041.99,2.37,11.11,9.33,-29.25,19.80,-57.90,29.0
2026/04/13 15:04:24.23,IMU,-59.08,135.74,-948.73,6.31,-3.92,8.19,-31.05,16.80,-55.65,28.7
2026/04/13 15:04:24.33,IMU,-100.10,130.86,-1028.32,44.45,19.27,24.95,-30.60,14.85,-56.10,28.7
2026/04/13 15:04:24.44,IMU,-110.35,31.74,-963.38,-3.99,12.76,37.90,-31.35,13.05,-56.10,28.8
2026/04/13 15:04:24.54,IMU,-108.40,52.25,-1015.14,10.03,-8.59,5.07,-33.30,11.10,-55.35,28.7
2026/04/13 15:04:24.64,IMU,-95.21,82.52,-924.80,-11.98,-36.85,-13.56,-31.95,8.70,-55.20,28.9
2026/04/13 15:04:24.74,IMU,-174.80,66.89,-886.72,-13.16,-42.63,-25.99,-28.50,12.60,-57.15,28.9
2026/04/13 15:04:24.84,IMU,-190.43,67.87,-924.32,-40.12,-23.42,23.31,-23.70,14.85,-57.15,28.9
2026/04/13 15:04:24.94,IMU,-372.56,112.79,-908.69,-29.66,-9.66,11.71,-22.05,18.60,-57.75,28.9
2026/04/13 15:04:25.04,IMU,-38.09,334.96,-1247.07,88.04,42.65,62.26,-22.35,21.15,-55.80,28.8
2026/04/13 15:04:25.14,IMU,-335.45,67.87,-1024.90,63.40,101.73,-79.82,-28.50,14.55,-56.40,28.7
2026/04/13 15:04:25.24,IMU,-85.94,-121.58,-1150.88,3.63,37.20,-5.45,-30.60,17.55,-56.10,29.1
2026/04/13 15:04:25.34,IMU,-110.35,252.93,-890.63,3.33,178.18,-115.92,-29.85,12.60,-56.70,28.7
2026/04/13 15:04:25.44,IMU,159.67,30.27,-906.74,-60.27,193.98,39.88,-44.40,17.70,-51.90,28.9
2026/04/13 15:04:25.54,IMU,725.59,3.42,-992.68,-83.88,35.31,39.21,-57.90,22.50,-41.25,29.0
2026/04/13 15:04:25.64,IMU,594.24,253.42,-743.16,38.47,22.66,-98.10,-57.90,25.20,-39.15,28.8
2026/04/13 15:04:25.74,IMU,489.75,130.37,-1003.42,127.49,-226.54,64.70,-51.75,23.10,-46.50,28.7
2026/04/13 15:04:25.84,IMU,170.41,5.37,-981.45,50.17,-131.88,-49.82,-38.70,13.35,-54.90,28.7
2026/04/13 15:04:25.94,IMU,-535.16,-269.04,-882.81,31.85,147.19,10.34,-27.15,10.20,-58.35,29.1
2026/04/13 15:04:26.04,IMU,450.20,-18.07,-967.77,-39.47,84.16,68.12,-44.10,12.15,-52.95,29.0
2026/04/13 15:04:26.14,IMU,-499.02,20.51,322.75,13.95,10.50,-157.20,-36.60,8.10,-54.30,28.9
2026/04/13 15:04:26.24,IMU,-8.79,-12.21,-974.61,96.66,-38.45,16.55,-36.90,8.40,-53.55,28.8
2026/04/13 15:04:26.34,IMU,117.19,-311.52,-928.22,7.43,26.16,-10.79,-35.25,4.05,-52.95,28.7
2026/04/13 15:04:26.44,IMU,126.95,-77.64,-853.52,-26.65,46.41,-23.10,-36.90,6.90,-51.00,28.8
2026/04/13 15:04:26.54,IMU,81.54,-81.54,-1048.34,-22.76,25.16,-21.29,-39.90,12.30,-50.70,28.9
2026/04/13 15:04:26.65,IMU,-196.78,-315.43,-1279.79,119.59,-140.22,-77.11,-36.15,16.80,-52.80,28.9
2026/04/13 15:04:26.75,IMU,-147.95,-282.71,-661.62,102.44,-54.03,37.10,-39.30,9.75,-50.10,29.1
2026/04/13 15:04:26.85,IMU,-408.69,-328.13,-555.18,-47.23,-202.04,-29.99,-23.25,6.15,-56.70,28.9
2026/04/13 15:04:26.95,IMU,-94.73,-74.22,-1039.55,-90.38,111.12,-35.72,-19.80,15.45,-55.80,28.9
2026/04/13 15:04:27.05,IMU,39.06,-57.13,-1080.08,40.89,-24.91,11.42,-24.00,18.30,-55.65,28.7
2026/04/13 15:04:27.15,IMU,-180.18,-270.02,-771.00,32.18,-19.92,-1.77,-21.30,14.70,-56.55,28.6
2026/04/13 15:04:27.25,IMU,-18.07,-507.32,-879.88,-6.63,-6.50,-5.44,-20.10,12.15,-55.50,28.9
2026/04/13 15:04:27.35,IMU,-104.00,-65.92,-977.05,-6.94,-5.02,9.99,-19.20,13.05,-55.65,28.9
2026/04/13 15:04:27.45,IMU,-8.30,-61.52,-997.56,-3.15,-0.02,1.82,-19.95,12.60,-56.40,28.7
2026/04/13 15:04:27.55,IMU,-151.86,-180.66,-950.20,-16.53,-11.41,2.50,-19.80,13.20,-56.55,29.0
2026/04/13 15:04:27.65,IMU,-133.79,-136.72,-981.45,-34.27,6.26,8.13,-18.90,18.30,-56.10,29.1
2026/04/13 15:04:27.75,IMU,-192.38,-47.36,-1036.62,15.39,-84.58,25.94,-20.10,19.65,-57.75,28.6
2026/04/13 15:04:27.85,IMU,-113.28,89.36,-1120.61,-55.67,-4.05,8.53,-17.25,23.40,-55.50,28.7
2026/04/13 15:04:27.95,IMU,-165.04,87.40,-1043.95,17.37,32.37,-1.59,-18.45,26.70,-56.10,28.6
2026/04/13 15:04:28.05,IMU,-131.35,-131.35,-977.54,28.37,0.45,2.32,-19.95,22.95,-56.70,28.7
2026/04/13 15:04:28.15,IMU,-114.26,95.21,-1063.96,-17.03,-0.20,19.50,-23.85,23.10,-57.00,28.9
2026/04/13 15:04:28.25,IMU,32.71,60.06,-1060.55,-12.85,-18.75,-4.54,-23.85,25.35,-59.10,28.8
2026/04/13 15:04:28.35,IMU,-66.89,-31.25,-966.31,0.69,-5.99,-2.12,-22.95,24.45,-57.45,28.9
2026/04/13 15:04:28.45,IMU,-57.62,62.01,-1031.74,-6.17,-10.76,17.19,-19.80,26.55,-57.75,28.7
2026/04/13 15:04:28.55,IMU,-198.24,126.95,-1040.04,2.09,-7.29,-1.64,-18.45,25.50,-56.40,28.9
2026/04/13 15:04:28.65,IMU,-109.86,88.38,-921.88,-2.64,-16.74,1.95,-16.50,26.10,-55.50,28.9
2026/04/13 15:04:28.75,IMU,-110.84,86.91,-1020.51,-7.76,0.63,-6.98,-13.35,27.00,-54.90,28.8
2026/04/13 15:04:28.85,IMU,-142.58,15.63,-983.40,3.73,-5.03,-14.73,-9.45,26.55,-51.60,29.1
2026/04/13 15:04:28.95,IMU,-85.94,-9.77,-980.47,29.34,-31.04,3.24,-7.35,22.65,-49.05,28.8
2026/04/13 15:04:29.06,IMU,-267.09,-42.97,-861.33,-14.85,-18.54,7.68,-10.05,22.50,-49.95,28.9
2026/04/13 15:04:29.16,IMU,-451.66,-271.48,-951.66,-11.71,49.02,27.29,-11.85,22.50,-49.50,29.0
2026/04/13 15:04:29.26,IMU,-186.04,86.43,-1021.97,-34.70,13.73,-16.58,-15.15,26.25,-49.50,29.0
2026/04/13 15:04:29.36,IMU,-15.63,49.80,-987.30,5.88,35.20,20.42,-13.50,26.85,-48.30,28.9
2026/04/13 15:04:29.46,IMU,-65.43,114.26,-1043.95,-24.59,4.80,-29.95,-18.75,25.35,-49.35,29.0
2026/04/13 15:04:29.56,IMU,-84.47,90.33,-1048.83,1.96,-27.86,15.60,-17.70,25.20,-49.95,28.9
2026/04/13 15:04:29.66,IMU,-121.09,104.98,-987.30,18.38,-22.98,6.77,-17.25,22.65,-49.80,28.9
2026/04/13 15:04:29.76,IMU,-158.69,77.15,-1001.95,-4.87,-13.84,7.25,-15.45,23.10,-50.85,28.9
2026/04/13 15:04:29.86,IMU,-163.57,116.21,-1015.63,12.21,-1.17,-4.03,-16.35,24.00,-48.90,28.9
2026/04/13 15:04:29.96,IMU,-154.79,79.59,-969.73,10.75,-1.44,-0.66,-14.85,21.75,-49.95,29.0
2026/04/13 15:04:30.06,IMU,-168.46,85.94,-991.70,-11.17,0.11,-6.36,-13.95,23.10,-50.85,29.1
2026/04/13 15:04:30.16,IMU,-193.36,65.92,-1047.85,-3.98,-8.29,-13.59,-11.70,24.30,-49.05,28.8
2026/04/13 15:04:30.26,IMU,-219.73,30.27,-956.54,0.98,-14.34,-11.43,-9.30,25.20,-46.65,28.8
2026/04/13 15:04:30.36,IMU,-186.04,155.76,-964.84,-8.87,17.35,-0.22,-7.65,26.10,-48.00,29.1
2026/04/13 15:04:30.46,IMU,-227.54,75.68,-943.85,14.79,8.68,0.92,-8.40,23.10,-48.30,29.0
2026/04/13 15:04:30.56,IMU,-213.38,5.37,-1020.02,-4.60,3.91,0.37,-8.55,25.20,-47.70,28.8
2026/04/13 15:04:30.66,IMU,-213.87,50.29,-1002.44,2.66,10.17,-10.62,-10.35,22.95,-48.45,29.1
2026/04/13 15:04:30.76,IMU,-190.92,83.01,-964.84,4.00,-6.79,11.63,-10.80,22.95,-48.45,28.6
2026/04/13 15:04:30.86,IMU,-189.45,48.83,-1023.44,-6.25,-5.78,10.09,-11.40,24.60,-49.80,29.1
2026/04/13 15:04:30.96,IMU,-205.08,119.14,-961.43,-12.60,-15.56,9.39,-12.60,24.45,-49.20,28.9
2026/04/13 15:04:31.06,IMU,-215.33,95.21,-998.05,0.99,0.48,2.82,-11.55,26.70,-50.70,28.6
2026/04/13 15:04:31.16,IMU,-268.55,6.35,-955.57,26.47,22.14,-19.54,-11.85,23.70,-50.25,29.0
2026/04/13 15:04:31.26,IMU,-191.89,30.76,-956.54,-21.60,-10.42,5.31,-13.65,22.50,-49.50,28.6
2026/04/13 15:04:31.36,IMU,-193.85,89.84,-1039.06,3.58,9.14,6.24,-13.35,23.25,-49.50,29.0
2026/04/13 15:04:31.46,IMU,-118.65,60.55,-1072.27,22.43,25.82,-3.31,-14.40,22.50,-49.50,29.0
2026/04/13 15:04:31.57,IMU,-52.25,94.73,-1029.79,-6.44,27.36,4.65,-18.30,20.85,-47.25,28.7
2026/04/13 15:04:31.67,IMU,-43.46,126.95,-970.70,5.97,9.15,-8.22,-18.45,21.45,-51.00,28.8
2026/04/13 15:04:31.77,IMU,-67.38,40.04,-1020.51,1.48,10.20,-2.71,-18.30,20.40,-49.35,29.1
2026/04/13 15:04:31.87,IMU,-37.11,12.70,-1024.41,4.80,2.31,-2.43,-18.90,21.75,-49.95,28.7
2026/04/13 15:04:31.97,IMU,-23.93,19.04,-1006.84,-1.73,15.57,-3.46,-20.10,20.85,-50.10,28.8
2026/04/13 15:04:32.07,IMU,-49.32,25.88,-1001.46,-1.23,0.75,1.97,-20.10,20.40,-49.80,28.9
2026/04/13 15:04:32.17,IMU,-44.43,46.39,-998.54,-2.33,-2.71,0.40,-19.50,20.85,-49.80,29.0
2026/04/13 15:04:32.27,IMU,21.97,70.31,-1030.27,-2.12,-0.11,0.34,-19.95,20.55,-49.50,29.0
2026/04/13 15:04:32.37,IMU,-20.51,83.01,-1009.77,-0.54,3.45,-0.89,-19.50,20.40,-48.60,29.0
2026/04/13 15:04:32.47,IMU,-7.32,60.55,-997.07,7.84,-2.41,2.29,-19.95,21.00,-50.70,28.9
2026/04/13 15:04:32.57,IMU,-23.93,37.60,-1011.72,-2.66,0.05,0.96,-22.80,16.95,-45.75,29.1
2026/04/13 15:04:32.67,IMU,-13.67,96.19,-1019.53,-1.81,0.24,2.21,-19.50,19.35,-49.35,29.0
2026/04/13 15:04:32.77,IMU,-13.67,41.99,-1012.21,-2.24,4.30,-4.42,-19.50,19.35,-49.35,29.1
2026/04/13 15:04:32.87,IMU,-57.62,27.34,-1010.25,-1.45,2.53,0.33,-19.65,19.80,-49.50,29.0
2026/04/13 15:04:32.97,IMU,-28.81,7.32,-1021.48,2.45,-1.28,5.73,-19.50,19.35,-49.05,29.1
2026/04/13 15:04:33.07,IMU,-38.09,51.76,-1008.30,-2.95,4.40,-2.01,-19.20,18.75,-49.20,28.9
2026/04/13 15:04:33.17,IMU,-22.95,57.13,-1012.70,-2.24,0.21,1.11,-19.95,18.75,-50.25,28.9
2026/04/13 15:04:33.27,IMU,-28.81,48.83,-1021.97,1.79,-3.56,-1.90,-19.95,18.75,-49.20,28.9
2026/04/13 15:04:33.37,IMU,-47.36,32.23,-987.79,-7.47,5.60,0.27,-20.10,19.65,-49.05,28.9
2026/04/13 15:04:33.47,IMU,-17.09,42.97,-1021.97,2.18,3.60,5.66,-18.30,20.40,-49.35,29.0
2026/04/13 15:04:33.59,IMU,-17.09,47.36,-1023.93,-0.27,2.57,-0.42,-22.95,19.05,-45.15,29.0
2026/04/13 15:04:33.69,IMU,-12.21,37.11,-1012.70,2.58,1.46,1.73,-21.15,20.55,-49.95,29.1
2026/04/13 15:04:33.79,IMU,-14.65,49.80,-1007.81,-1.11,-0.70,2.53,-20.55,21.15,-49.80,28.8
2026/04/13 15:04:33.89,IMU,10.74,41.99,-1009.28,-1.44,1.90,2.64,-22.05,20.40,-50.85,29.0
2026/04/13 15:04:33.99,IMU,57.13,45.41,-1027.83,-3.03,6.85,1.23,-19.95,20.55,-50.70,28.8
2026/04/13 15:04:34.09,IMU,-13.18,74.22,-997.56,-0.23,-0.79,1.70,-22.95,21.00,-49.95,29.1
2026/04/13 15:04:34.19,IMU,-15.14,75.68,-1000.00,5.15,3.98,-2.26,-24.90,21.90,-51.60,28.9
2026/04/13 15:04:34.29,IMU,-27.34,74.71,-992.68,-4.73,8.92,-0.59,-24.75,19.50,-49.95,28.6
2026/04/13 15:04:34.39,IMU,-74.22,44.43,-1021.48,7.52,0.41,-4.31,-24.75,22.20,-51.00,29.0
2026/04/13 15:04:34.49,IMU,67.38,6.84,-1037.11,10.34,-7.03,-4.89,-22.35,21.90,-49.80,29.1
2026/04/13 15:04:34.59,IMU,1.46,-13.67,-992.19,5.73,-4.22,-14.73,-18.75,20.85,-49.35,29.1
2026/04/13 15:04:34.69,IMU,31.25,100.59,-1007.81,-11.34,10.88,-11.26,-18.30,23.10,-48.60,28.9
2026/04/13 15:04:34.79,IMU,11.72,29.30,-1012.70,20.11,-3.58,-8.25,-18.30,22.65,-48.60,29.0
2026/04/13 15:04:34.89,IMU,52.73,28.81,-1016.11,6.05,-1.39,7.62,-18.90,24.45,-48.90,29.1
2026/04/13 15:04:34.99,IMU,30.27,-17.58,-1018.55,19.64,0.04,-8.42,-18.75,21.60,-50.10,29.1
2026/04/13 15:04:35.09,IMU,7.81,-60.55,-1034.67,15.35,5.21,4.61,-20.85,20.10,-48.60,28.8
2026/04/13 15:04:35.19,IMU,38.57,-47.85,-1034.18,2.49,7.37,-0.60,-21.75,18.30,-48.45,28.9
2026/04/13 15:04:35.30,IMU,4.39,-88.38,-1010.25,2.97,4.07,-5.98,-19.95,17.25,-49.20,28.9
2026/04/13 15:04:35.40,IMU,31.25,-77.15,-1021.97,-4.32,5.11,-1.75,-21.45,18.30,-49.50,28.9
2026/04/13 15:04:35.50,IMU,26.37,-78.61,-1009.28,4.76,3.89,-3.12,-21.60,17.70,-48.30,29.1
2026/04/13 15:04:35.60,IMU,44.43,-46.88,-993.65,1.61,1.97,-4.50,-21.15,17.55,-47.10,28.9
2026/04/13 15:04:35.70,IMU,48.34,-117.19,-1010.74,1.02,-6.47,0.82,-20.85,17.70,-48.60,29.0
2026/04/13 15:04:35.80,IMU,34.67,11.23,-1001.46,-53.11,-54.06,1.04,-16.80,20.10,-46.50,29.1
2026/04/13 15:04:35.90,IMU,-175.78,30.27,-1004.39,14.53,-73.11,32.63,-9.00,21.00,-45.15,29.1
2026/04/13 15:04:36.00,IMU,-195.31,-28.81,-1001.46,48.86,32.42,-16.33,-8.70,20.10,-45.45,29.0
2026/04/13 15:04:36.10,IMU,-73.73,-36.62,-1004.39,8.34,23.76,1.62,-12.60,16.80,-47.10,29.1
2026/04/13 15:04:36.20,IMU,-86.91,-52.73,-1031.74,-8.18,5.82,-7.98,-13.05,16.80,-48.15,28.8
2026/04/13 15:04:36.30,IMU,-14.16,-9.77,-1005.37,-3.47,10.72,2.05,-13.50,17.40,-46.20,29.0
2026/04/13 15:04:36.40,IMU,-60.06,-44.43,-1032.71,-2.97,4.14,-9.79,-13.05,19.05,-44.85,28.9
2026/04/13 15:04:36.50,IMU,-45.41,-31.25,-1003.91,-13.79,5.19,-8.68,-12.60,19.05,-45.90,29.1
2026/04/13 15:04:36.60,IMU,-26.37,8.30,-1010.74,-21.08,26.40,-13.31,-13.35,21.00,-45.90,28.9
2026/04/13 15:04:36.70,IMU,44.43,39.06,-1068.85,-22.18,19.01,2.85,-14.25,21.15,-45.75,28.8
2026/04/13 15:04:36.80,IMU,22.95,68.36,-999.51,-13.01,8.66,-2.63,-13.65,23.25,-46.65,28.9
2026/04/13 15:04:36.90,IMU,36.13,67.38,-1013.18,6.37,15.17,-0.34,-16.05,22.35,-46.20,28.9
2026/04/13 15:04:37.00,IMU,61.04,45.90,-1025.88,21.20,4.43,-5.51,-16.65,22.20,-45.15,29.0
2026/04/13 15:04:37.10,IMU,36.13,7.81,-996.09,11.98,-6.15,-7.96,-16.80,21.60,-44.70,29.1
2026/04/13 15:04:37.20,IMU,54.69,-18.55,-1010.25,10.18,-7.54,-3.21,-17.10,21.00,-44.85,28.8
2026/04/13 15:04:37.30,IMU,-37.11,-31.74,-1051.76,11.27,-50.33,-12.46,-17.55,19.35,-44.70,29.0
2026/04/13 15:04:37.40,IMU,-23.44,-49.80,-1045.90,10.10,-17.48,-9.84,-14.85,19.80,-45.60,28.7
2026/04/13 15:04:37.50,IMU,-250.98,-123.54,-708.50,46.02,28.09,6.27,-12.75,17.70,-44.25,29.0
2026/04/13 15:04:37.60,IMU,-125.98,-101.07,-949.22,-0.70,-23.04,-11.77,-10.65,14.40,-42.45,29.1
2026/04/13 15:04:37.71,IMU,-120.12,-123.54,-1002.93,-7.88,18.60,-9.84,-11.10,17.55,-42.30,28.7
2026/04/13 15:04:37.81,IMU,-295.90,60.55,-254.88,7.70,93.82,21.58,-12.75,15.90,-41.85,29.0
2026/04/13 15:04:37.91,IMU,-52.73,-114.75,-1004.39,-32.96,1.76,-12.02,-13.20,17.40,-42.45,29.0
2026/04/13 15:04:38.01,IMU,-6.35,-53.22,-1072.27,-32.04,-6.40,-12.99,-11.85,19.80,-43.05,29.1
2026/04/13 15:04:38.11,IMU,-75.20,46.39,-1017.09,-42.80,-40.94,-22.73,-7.95,21.90,-42.15,28.9
2026/04/13 15:04:38.21,IMU,-201.17,89.36,-1043.46,-35.42,-55.40,-15.07,0.15,24.00,-36.90,29.0
2026/04/13 15:04:38.31,IMU,-634.28,16.60,40.04,75.34,250.13,16.50,0.90,23.25,-36.60,29.1
2026/04/13 15:04:38.41,IMU,-232.42,39.55,-944.34,11.55,-3.91,-11.79,-1.35,20.85,-38.55,28.9
2026/04/13 15:04:38.51,IMU,-184.57,70.31,-991.70,6.88,-6.67,10.92,-0.45,22.20,-36.60,29.1
2026/04/13 15:04:38.61,IMU,-174.80,46.39,-1029.79,14.37,3.30,0.11,-0.90,21.45,-37.35,29.0
2026/04/13 15:04:38.71,IMU,-225.59,4.39,-986.82,39.61,24.67,-0.90,-3.90,18.90,-38.55,28.8
2026/04/13 15:04:38.81,IMU,-143.55,-87.89,-992.68,26.15,8.40,-12.56,-6.90,17.70,-40.05,29.0
2026/04/13 15:04:38.91,IMU,-170.90,-102.05,-986.82,1.31,2.15,12.11,-7.80,16.50,-39.45,28.9
2026/04/13 15:04:39.01,IMU,-167.48,-70.31,-954.59,-33.73,-3.65,-11.41,-7.05,16.80,-39.75,29.0
2026/04/13 15:04:39.11,IMU,-185.06,-71.78,-949.22,-24.74,-15.34,-1.27,-4.20,19.05,-40.20,29.1
2026/04/13 15:04:39.21,IMU,-198.24,31.74,-1018.07,-27.11,-8.69,5.69,0.30,21.15,-37.50,28.8
2026/04/13 15:04:39.31,IMU,-192.38,36.13,-1035.16,20.63,19.80,0.98,-0.15,22.95,-37.65,29.0
2026/04/13 15:04:39.41,IMU,-159.18,-7.81,-964.84,44.03,19.89,8.62,-3.75,19.50,-40.20,28.9
2026/04/13 15:04:39.51,IMU,-135.25,-63.48,-979.49,-2.03,2.39,-0.47,-6.60,16.65,-41.40,29.0
2026/04/13 15:04:39.61,IMU,-146.97,-26.37,-1005.37,-25.88,-8.80,-4.89,-5.25,18.00,-40.20,28.9
2026/04/13 15:04:39.71,IMU,-146.00,6.84,-1032.23,-14.79,0.58,-2.36,-3.75,19.50,-40.20,29.0
2026/04/13 15:04:39.81,IMU,-157.23,22.95,-1016.11,0.48,-0.65,-1.40,-3.00,21.45,-40.20,28.8
2026/04/13 15:04:39.91,IMU,-131.84,13.67,-1016.60,5.91,6.10,4.20,-3.45,20.25,-38.70,28.9
2026/04/13 15:04:40.01,IMU,-135.25,21.00,-1015.63,3.20,7.87,1.41,-4.35,19.65,-38.55,28.9
2026/04/13 15:04:40.11,IMU,-126.46,5.37,-997.56,2.28,7.98,2.37,-6.00,19.50,-39.75,29.1
2026/04/13 15:04:40.22,IMU,-115.72,9.77,-1005.37,2.30,-4.34,-0.82,-3.90,18.60,-40.05,29.0
2026/04/13 15:04:40.32,IMU,-116.21,16.60,-1014.65,-0.97,-6.24,1.20,-3.75,19.50,-38.40,29.1
2026/04/13 15:04:40.42,IMU,-135.25,-1.46,-994.14,-1.63,-3.31,-4.55,-4.20,20.25,-40.50,29.1
2026/04/13 15:04:40.52,IMU,-108.89,-8.30,-1018.55,9.51,1.85,3.90,-3.90,20.10,-39.60,28.7
2026/04/13 15:04:40.62,IMU,-131.84,-35.16,-998.05,-0.99,-0.92,-0.06,-4.65,18.90,-40.05,28.9
2026/04/13 15:04:40.72,IMU,-138.18,14.16,-997.07,-14.05,-11.61,-4.57,-5.40,18.60,-38.55,29.1
2026/04/13 15:04:40.82,IMU,-160.64,18.07,-1018.07,-13.50,-9.96,-1.91,-2.10,20.10,-37.50,28.8
2026/04/13 15:04:40.92,IMU,-187.99,26.37,-987.30,2.22,0.15,-1.24,37.95,21.15,-39.30,29.1
2026/04/13 15:04:41.02,IMU,-161.62,18.55,-1013.18,-7.05,6.90,1.07,-1.65,20.25,-38.70,29.1
2026/04/13 15:04:41.12,IMU,-159.18,53.22,-984.38,-9.53,13.50,-8.43,-0.15,21.75,-36.60,29.0
2026/04/13 15:04:41.22,IMU,-72.75,64.94,-1035.64,5.60,-1.45,-10.18,-3.45,21.75,-39.45,29.1
2026/04/13 15:04:41.32,IMU,-86.43,106.45,-1055.18,-14.80,1.63,0.18,-1.65,21.75,-39.15,29.0
2026/04/13 15:04:41.42,IMU,-62.01,57.62,-999.51,-0.02,-0.40,-6.63,-2.25,22.95,-37.35,29.1
2026/04/13 15:04:41.52,IMU,-71.78,66.41,-1012.21,-6.08,-0.37,3.97,-2.85,22.35,-37.80,28.6
2026/04/13 15:04:41.62,IMU,-50.29,61.04,-1040.04,4.53,15.24,1.91,-1.95,23.25,-39.75,29.1
2026/04/13 15:04:41.72,IMU,-64.45,48.34,-1004.88,6.05,6.98,0.21,-1.95,22.20,-38.40,29.1
2026/04/13 15:04:41.82,IMU,-40.04,38.09,-1018.55,-0.37,7.01,2.44,-5.40,22.65,-40.05,28.8
2026/04/13 15:04:41.92,IMU,-41.99,38.09,-1011.23,-1.19,5.66,-4.10,-5.25,22.20,-40.20,29.0
2026/04/13 15:04:42.02,IMU,-9.77,41.02,-1013.18,-2.48,13.92,-8.34,-4.50,22.95,-40.50,28.8
2026/04/13 15:04:42.12,IMU,40.53,63.48,-1013.67,-1.73,-4.26,-0.42,-3.60,22.65,-39.60,29.0
2026/04/13 15:04:42.22,IMU,-22.46,56.64,-1025.39,6.49,-2.95,4.47,-3.60,23.85,-39.30,29.1
2026/04/13 15:04:42.32,IMU,-5.86,22.95,-989.75,-0.28,2.85,5.45,-6.00,23.25,-40.20,29.1
2026/04/13 15:04:42.42,IMU,-9.77,60.55,-1021.97,0.34,2.69,-0.43,-5.70,22.50,-39.15,28.9
2026/04/13 15:04:42.53,IMU,-0.49,60.55,-1012.70,6.95,20.84,7.19,-6.00,21.00,-40.20,28.8
2026/04/13 15:04:42.63,IMU,53.71,28.81,-971.68,2.05,9.18,13.22,-7.65,21.60,-42.15,29.1
2026/04/13 15:04:42.73,IMU,60.06,43.95,-1004.39,-1.46,3.29,8.30,-9.00,22.20,-42.75,29.1
2026/04/13 15:04:42.83,IMU,34.67,159.18,-995.12,-11.82,-15.02,16.20,-9.90,21.15,-43.20,29.0
2026/04/13 15:04:42.93,IMU,-6.35,9.28,-1062.99,4.75,1.82,9.47,-10.20,21.90,-42.90,29.1
2026/04/13 15:04:43.04,IMU,32.71,20.02,-1032.71,17.95,17.02,-4.47,-12.30,21.00,-42.75,29.0
2026/04/13 15:04:43.14,IMU,48.83,32.71,-1013.18,-8.24,-0.82,-1.61,-10.35,19.80,-44.85,29.0
2026/04/13 15:04:43.24,IMU,48.34,52.25,-999.51,1.34,0.92,5.07,-12.45,18.90,-45.00,28.8
2026/04/13 15:04:43.34,IMU,40.53,76.66,-968.26,-29.96,17.63,3.48,-13.35,21.00,-45.60,28.9
2026/04/13 15:04:43.44,IMU,36.62,78.61,-965.82,-19.53,-14.45,1.66,-13.20,23.40,-47.55,29.0
2026/04/13 15:04:43.54,IMU,16.11,76.66,-1022.46,-6.02,5.08,-0.50,-11.85,24.75,-45.90,28.9
2026/04/13 15:04:43.64,IMU,22.46,144.04,-997.56,-13.23,-15.22,-1.30,-9.90,23.10,-46.50,28.9
2026/04/13 15:04:43.74,IMU,44.43,69.34,-1075.68,22.78,-4.73,0.31,-9.15,21.15,-48.00,29.0
2026/04/13 15:04:43.84,IMU,44.92,106.93,-1009.28,9.31,-8.80,2.63,-7.95,20.10,-45.75,29.0
2026/04/13 15:04:43.94,IMU,-17.09,52.25,-989.26,9.90,4.98,-1.76,-9.30,18.75,-47.10,28.9
2026/04/13 15:04:44.04,IMU,33.20,86.43,-1036.62,14.61,-0.43,1.73,-10.35,17.25,-46.65,28.9
2026/04/13 15:04:44.14,IMU,-0.98,-12.70,-1013.67,5.27,3.89,-2.69,-12.60,16.80,-48.90,29.1
2026/04/13 15:04:44.24,IMU,55.66,52.73,-1028.81,3.40,0.35,2.15,-13.50,16.95,-46.80,29.1
2026/04/13 15:04:44.34,IMU,77.15,56.15,-1031.25,13.95,1.04,2.66,-14.40,16.50,-48.15,29.1
2026/04/13 15:04:44.44,IMU,-74.22,-151.37,-1004.88,36.74,-3.61,-1.15,-17.70,13.80,-50.25,29.0
2026/04/13 15:04:44.54,IMU,13.18,-31.74,-997.56,-13.66,5.61,-0.61,-18.00,13.95,-51.15,29.1
2026/04/13 15:04:44.64,IMU,80.57,8.79,-999.51,-12.41,2.76,10.77,-17.10,15.30,-48.90,29.1
2026/04/13 15:04:44.74,IMU,50.29,32.23,-1023.93,8.99,-0.07,-4.00,-16.50,16.95,-49.05,28.8
2026/04/13 15:04:44.84,IMU,39.06,0.98,-1021.97,5.93,-3.49,-2.19,-19.05,15.45,-51.90,28.9
2026/04/13 15:04:44.94,IMU,46.88,-17.09,-1016.11,3.95,-0.31,-0.97,-18.75,17.40,-49.35,28.9
2026/04/13 15:04:45.04,IMU,47.85,-55.66,-1011.72,3.04,1.08,1.53,-19.50,14.70,-49.35,28.6
2026/04/13 15:04:45.14,IMU,20.51,-6.84,-1016.11,-2.54,0.37,1.11,-18.75,14.70,-49.05,28.9
2026/04/13 15:04:45.24,IMU,38.09,-11.23,-1018.07,0.79,1.71,2.94,-17.70,16.50,-49.20,28.9
2026/04/13 15:04:45.34,IMU,43.46,-11.23,-1008.30,-2.35,2.88,4.11,-17.70,15.75,-51.00,29.0
2026/04/13 15:04:45.45,IMU,27.34,6.84,-1002.44,0.71,2.85,-2.04,-19.50,18.15,-50.40,28.9
2026/04/13 15:04:45.55,IMU,32.23,-4.88,-986.33,-7.56,4.36,0.79,-19.50,15.90,-49.35,28.8
2026/04/13 15:04:45.65,IMU,52.73,6.35,-1000.98,1.23,1.11,0.55,-18.30,15.90,-50.10,29.0
2026/04/13 15:04:45.75,IMU,48.83,-8.79,-1021.97,3.72,0.08,1.65,-19.05,16.65,-49.35,29.1
2026/04/13 15:04:45.85,IMU,59.57,32.23,-1015.63,3.78,-1.79,-3.60,-18.90,15.75,-49.20,28.9
2026/04/13 15:04:45.95,IMU,38.57,-25.88,-1045.41,15.16,-5.96,-2.02,-18.30,14.40,-50.40,29.1
2026/04/13 15:04:46.05,IMU,59.57,17.09,-1014.65,-8.78,8.31,-2.89,-18.45,15.75,-49.50,28.9
2026/04/13 15:04:46.15,IMU,-71.29,-79.59,-962.89,10.77,0.89,-7.58,-20.40,15.30,-50.25,28.9
2026/04/13 15:04:46.25,IMU,-19.53,-53.71,-1004.88,-2.23,2.82,-3.02,-20.40,14.85,-51.00,29.1
2026/04/13 15:04:46.35,IMU,61.52,-93.75,-1010.25,6.13,19.42,12.40,-19.65,15.30,-49.95,29.0
2026/04/13 15:04:46.45,IMU,136.23,25.39,-1058.11,1.01,11.31,2.08,-20.85,15.45,-49.80,29.0
2026/04/13 15:04:46.55,IMU,60.55,-25.39,-1024.41,-4.11,5.50,-0.44,-20.40,15.30,-49.95,28.7
2026/04/13 15:04:46.65,IMU,32.23,-27.34,-1015.14,-4.59,4.35,5.91,-20.85,16.20,-49.35,29.2
2026/04/13 15:04:46.75,IMU,47.85,-18.07,-1023.44,1.35,-6.03,1.77,-21.15,17.25,-50.70,29.0
2026/04/13 15:04:46.85,IMU,71.29,3.91,-1022.95,-9.07,-3.69,5.68,-20.70,16.05,-50.70,29.1
2026/04/13 15:04:46.95,IMU,71.29,23.44,-1023.44,2.35,0.79,-1.53,-21.15,16.80,-48.90,29.1
2026/04/13 15:04:47.05,IMU,60.06,-13.18,-1001.95,-3.24,-0.57,-1.27,-20.40,15.75,-49.50,29.1
2026/04/13 15:04:47.15,IMU,61.52,-7.32,-1009.77,-1.29,-4.37,0.21,-19.50,15.90,-49.35,29.1
2026/04/13 15:04:47.25,IMU,53.71,14.65,-1025.39,-5.51,0.06,4.13,-18.30,16.65,-50.10,29.1
2026/04/13 15:04:47.35,IMU,50.29,-2.44,-1003.91,4.46,1.75,-3.37,-19.20,16.05,-49.50,29.2
2026/04/13 15:04:47.45,IMU,32.71,0.00,-1014.65,-1.92,2.29,0.52,-20.55,16.95,-49.80,29.0
2026/04/13 15:04:47.55,IMU,39.55,-13.18,-1015.63,3.40,0.71,2.98,-18.90,16.80,-49.20,29.1
2026/04/13 15:04:47.65,IMU,69.34,14.16,-1022.46,-0.82,0.32,2.26,-20.70,16.05,-49.50,29.1
2026/04/13 15:04:47.76,IMU,50.29,23.93,-1005.86,-1.23,1.82,-0.17,-20.40,16.80,-50.70,29.1
2026/04/13 15:04:47.86,IMU,91.80,24.41,-1028.81,0.55,0.49,0.15,-21.60,16.20,-50.85,29.0
2026/04/13 15:04:47.96,IMU,53.22,-8.30,-1015.63,1.08,-1.52,-0.76,-19.80,16.65,-51.15,29.1
2026/04/13 15:04:48.06,IMU,52.73,27.34,-1020.02,-4.23,-0.50,-2.15,-19.95,17.25,-50.25,29.0
2026/04/13 15:04:48.16,IMU,57.62,9.77,-1012.70,-1.44,-1.56,-0.92,-18.15,18.30,-49.50,29.1
2026/04/13 15:04:48.26,IMU,36.62,22.95,-1009.77,-9.16,-16.50,-5.73,-18.75,16.95,-49.35,28.9
2026/04/13 15:04:48.36,IMU,-22.46,59.57,-1006.35,-13.05,-53.92,12.00,-15.90,18.75,-50.25,29.0
2026/04/13 15:04:48.46,IMU,-59.57,46.88,-1041.02,4.88,-31.96,11.05,-12.45,18.60,-51.15,29.0
2026/04/13 15:04:48.56,IMU,-166.99,25.88,-1001.95,15.84,-52.81,13.75,-12.60,18.75,-49.50,28.9
2026/04/13 15:04:48.66,IMU,-230.47,2.44,-978.52,17.10,-59.57,6.56,-9.90,15.90,-49.35,29.0
2026/04/13 15:04:48.76,IMU,-380.86,-45.90,-977.05,51.89,-96.96,19.10,-2.85,16.65,-47.25,29.1
2026/04/13 15:04:48.86,IMU,-493.16,-137.21,-853.03,64.56,-73.86,7.27,0.90,11.85,-45.90,28.9
2026/04/13 15:04:48.96,IMU,-583.50,-237.30,-715.82,49.80,-59.94,-2.47,4.20,8.10,-43.35,28.9
2026/04/13 15:04:49.06,IMU,-624.51,-200.68,-793.95,46.22,-21.32,-7.33,5.25,4.35,-42.30,29.1
2026/04/13 15:04:49.16,IMU,-830.57,-296.39,-1151.86,66.33,-21.83,-11.38,7.35,3.00,-41.85,29.1
2026/04/13 15:04:49.26,IMU,-683.11,-411.13,-654.30,52.12,-26.36,-18.28,5.25,-4.35,-40.20,29.3
2026/04/13 15:04:49.36,IMU,-691.89,-463.38,-502.93,-15.06,42.55,6.06,6.30,-4.65,-40.50,29.1
2026/04/13 15:04:49.46,IMU,-421.88,-328.61,-834.96,-169.96,250.13,-36.75,-4.95,2.40,-46.65,29.3
2026/04/13 15:04:49.56,IMU,35.64,-182.13,-1164.06,-9.98,139.00,-59.23,-23.10,13.20,-50.40,29.2
2026/04/13 15:04:49.66,IMU,334.96,-144.04,-1068.36,98.93,250.13,-112.90,-33.90,10.80,-47.40,29.6
2026/04/13 15:04:49.76,IMU,584.47,-258.30,-697.27,29.25,35.11,-11.20,-43.50,6.90,-40.50,29.4
2026/04/13 15:04:49.86,IMU,541.50,-343.75,-829.59,22.15,30.05,2.48,-49.05,4.35,-34.35,29.4
2026/04/13 15:04:49.96,IMU,589.84,-341.31,-721.68,15.27,32.73,8.67,-48.00,4.65,-35.10,29.3
2026/04/13 15:04:50.06,IMU,608.40,-361.82,-688.96,6.89,27.05,-2.64,-48.45,3.75,-34.95,29.4
2026/04/13 15:04:50.17,IMU,648.44,-362.30,-685.55,1.31,14.82,6.26,-49.80,4.35,-33.60,28.9
2026/04/13 15:04:50.27,IMU,615.23,-227.05,-593.75,16.63,43.59,-37.14,-50.10,3.60,-34.05,29.1
2026/04/13 15:04:50.37,IMU,706.54,-367.19,-597.17,-21.00,-3.48,-16.08,-52.35,6.60,-31.20,29.1
2026/04/13 15:04:50.47,IMU,739.75,-325.20,-685.06,0.92,16.95,-3.53,-52.35,6.90,-31.80,29.1
2026/04/13 15:04:50.57,IMU,705.08,-302.73,-543.95,-10.73,-3.30,-3.52,-54.15,5.40,-31.20,29.1
2026/04/13 15:04:50.67,IMU,734.38,-120.61,-690.92,-11.38,26.29,-26.20,-52.05,10.05,-33.00,29.4
2026/04/13 15:04:50.77,IMU,671.39,-152.34,-580.57,-0.05,-130.63,-15.46,-51.45,10.95,-32.40,29.4
2026/04/13 15:04:50.87,IMU,300.29,-189.94,-731.93,-28.55,-243.61,-13.34,-42.75,10.80,-37.35,29.1
2026/04/13 15:04:50.97,IMU,145.02,-98.14,-1055.18,15.85,-147.80,7.98,-20.70,12.60,-46.35,28.9
2026/04/13 15:04:51.07,IMU,-104.49,-138.67,-1006.84,31.95,-93.70,-9.15,-10.20,12.15,-44.70,29.0
2026/04/13 15:04:51.17,IMU,-207.52,-202.15,-975.10,11.31,-25.62,-2.45,-4.35,8.25,-42.45,29.0
2026/04/13 15:04:51.27,IMU,-190.92,-190.92,-959.96,0.11,1.67,-2.81,-1.95,8.10,-39.75,29.0
2026/04/13 15:04:51.37,IMU,-119.63,-207.52,-904.79,-3.70,119.00,4.40,-6.30,7.35,-41.25,29.0
2026/04/13 15:04:51.47,IMU,-92.29,-331.05,-865.23,5.45,10.51,11.36,-13.35,6.60,-42.75,29.3
2026/04/13 15:04:51.57,IMU,-116.70,-520.51,-770.51,63.11,-42.99,38.44,-15.00,4.80,-44.25,29.2
2026/04/13 15:04:51.67,IMU,-128.91,-348.14,-934.08,-10.97,-2.11,-5.60,-11.70,2.25,-42.15,28.9
2026/04/13 15:04:51.77,IMU,-108.89,-325.20,-968.26,-8.38,7.08,-3.55,-11.85,3.60,-43.05,29.1
2026/04/13 15:04:51.88,IMU,-149.41,-536.62,-843.26,147.22,-67.70,-44.44,-9.00,-3.15,-40.95,29.2
2026/04/13 15:04:51.98,IMU,-236.33,-443.85,-873.54,-132.64,39.47,7.50,-10.05,-4.35,-39.45,29.0
2026/04/13 15:04:52.08,IMU,-54.69,-714.84,-890.63,30.82,13.82,34.66,-9.15,1.05,-41.10,28.8
2026/04/13 15:04:52.18,IMU,-248.54,9.77,-1257.32,-92.66,47.28,-12.49,-11.55,6.90,-43.35,29.1
2026/04/13 15:04:52.28,IMU,91.31,-81.05,-815.92,-23.27,-46.83,24.31,-13.50,11.70,-46.80,29.1
2026/04/13 15:04:52.38,IMU,-66.41,-211.91,-968.26,-43.25,-53.08,16.96,-4.65,13.20,-44.70,28.8
2026/04/13 15:04:52.48,IMU,-199.22,-136.72,-1148.93,-16.80,-58.04,55.27,4.95,14.55,-42.30,29.0
2026/04/13 15:04:52.58,IMU,-267.09,-246.58,-854.00,24.95,30.91,-33.06,3.90,13.95,-42.15,29.1
2026/04/13 15:04:52.68,IMU,-191.89,-125.98,-994.14,15.67,7.71,10.50,3.90,10.20,-40.35,29.0
2026/04/13 15:04:52.78,IMU,-172.85,-232.42,-944.82,23.30,30.46,-8.71,-0.30,9.00,-41.10,29.1
2026/04/13 15:04:52.88,IMU,-187.50,-183.59,-954.10,-6.14,1.95,3.96,-1.65,7.35,-42.75,29.1
2026/04/13 15:04:52.98,IMU,-163.57,-193.36,-883.30,-11.11,-23.48,-4.29,-1.05,7.50,-42.45,28.9
2026/04/13 15:04:53.09,IMU,-196.29,-232.91,-968.75,11.52,-8.31,-6.27,1.20,8.40,-43.05,29.0
2026/04/13 15:04:53.19,IMU,-207.03,-213.38,-970.70,5.47,-3.08,5.88,0.30,6.00,-42.45,29.1
2026/04/13 15:04:53.29,IMU,-266.60,-163.09,-979.49,3.46,-19.53,22.50,1.65,9.30,-43.80,29.1
2026/04/13 15:04:53.39,IMU,-200.68,-158.69,-975.59,-10.47,-10.81,13.11,1.35,9.00,-43.20,29.4
2026/04/13 15:04:53.49,IMU,-284.18,-214.36,-975.10,4.86,11.80,-16.00,1.20,10.80,-44.85,29.0
2026/04/13 15:04:53.59,IMU,-242.19,-217.29,-957.52,-6.97,-0.66,-2.53,-0.90,10.35,-44.10,28.9
2026/04/13 15:04:53.69,IMU,-236.82,-306.15,-1047.85,36.04,7.74,-2.69,-1.20,8.85,-43.35,28.9
2026/04/13 15:04:53.79,IMU,-184.57,-249.02,-935.55,10.55,41.38,19.33,-7.05,7.65,-47.10,28.9
2026/04/13 15:04:53.89,IMU,-133.30,-73.73,-1267.09,-52.92,0.10,48.11,-6.90,9.45,-47.25,29.2
2026/04/13 15:04:53.99,IMU,-300.78,-179.69,-1021.97,68.95,-28.37,-22.74,-5.25,11.10,-47.10,28.8
2026/04/13 15:04:54.09,IMU,-266.60,-379.39,-869.14,7.36,9.27,-11.82,-7.35,6.00,-44.25,29.1
2026/04/13 15:04:54.19,IMU,-222.66,-357.91,-967.77,-11.56,-6.40,-2.32,-5.85,4.50,-40.35,28.8
2026/04/13 15:04:54.29,IMU,-123.05,-292.97,-971.19,12.36,-1.13,-2.72,-4.95,3.15,-40.20,29.1
2026/04/13 15:04:54.39,IMU,-194.34,-308.11,-946.78,0.37,2.19,17.96,-5.70,3.60,-42.00,29.0
2026/04/13 15:04:54.49,IMU,-239.26,-240.72,-984.38,-40.84,5.17,-7.91,-6.90,6.75,-42.15,28.6
2026/04/13 15:04:54.59,IMU,-249.51,-263.18,-844.24,-55.06,2.21,28.60,-5.25,9.60,-44.55,29.2
2026/04/13 15:04:54.69,IMU,-173.83,33.69,-1101.07,-114.89,15.69,17.69,-3.45,18.30,-44.85,29.1
2026/04/13 15:04:54.79,IMU,-175.78,103.52,-954.59,-26.00,18.60,14.98,-4.65,23.10,-45.00,28.9
2026/04/13 15:04:54.89,IMU,-71.78,176.27,-1041.99,-43.89,43.11,40.76,-8.70,27.60,-45.75,29.1
2026/04/13 15:04:54.99,IMU,-56.64,231.93,-1025.39,-19.59,20.69,17.27,-11.85,31.65,-45.90,28.7
2026/04/13 15:04:55.09,IMU,5.37,248.05,-978.03,15.21,3.40,2.72,-13.20,31.50,-46.50,29.1
2026/04/13 15:04:55.19,IMU,3.42,235.35,-987.79,1.05,10.37,8.83,-15.75,31.05,-45.75,29.1
2026/04/13 15:04:55.29,IMU,8.79,240.72,-964.36,-8.43,11.31,8.35,-17.55,31.80,-45.75,29.1
2026/04/13 15:04:55.39,IMU,75.20,244.14,-992.68,15.54,7.07,5.63,-17.25,29.85,-45.45,29.0
2026/04/13 15:04:55.50,IMU,54.20,244.14,-979.49,2.63,3.85,1.49,-18.75,29.85,-46.50,29.0
2026/04/13 15:04:55.60,IMU,38.57,210.45,-989.26,6.34,7.29,5.90,-19.95,30.45,-45.90,28.9
2026/04/13 15:04:55.70,IMU,74.22,216.80,-1005.37,24.61,-9.62,0.64,-19.20,30.45,-45.90,29.1
2026/04/13 15:04:55.80,IMU,43.95,120.61,-1027.83,35.75,-15.57,-29.67,-18.30,27.30,-46.80,29.1
2026/04/13 15:04:55.90,IMU,17.09,105.47,-977.54,12.80,-13.40,2.79,-15.15,24.45,-47.10,29.1
2026/04/13 15:04:56.00,IMU,33.20,164.06,-1084.47,11.44,-15.08,-43.72,-14.40,25.50,-45.90,29.0
2026/04/13 15:04:56.10,IMU,54.20,82.52,-1026.86,63.16,-16.12,5.27,-11.55,23.70,-44.85,29.1
2026/04/13 15:04:56.20,IMU,-131.84,-40.04,-976.56,32.14,6.48,-23.06,-13.65,18.75,-47.10,29.1
2026/04/13 15:04:56.30,IMU,19.53,-49.80,-939.45,18.67,-17.56,-11.93,-8.70,19.65,-44.25,29.1
2026/04/13 15:04:56.40,IMU,-195.31,-209.47,-940.92,-23.55,2.15,-29.91,-7.35,21.15,-44.25,29.1
2026/04/13 15:04:56.50,IMU,94.73,93.26,-1052.73,38.40,-4.52,17.90,-1.20,17.25,-39.45,29.1
2026/04/13 15:04:56.60,IMU,-51.27,-208.01,-988.77,6.17,-0.39,-32.25,0.30,12.90,-37.50,29.1
2026/04/13 15:04:56.70,IMU,-63.48,-188.96,-953.61,-50.62,-18.50,-15.75,2.85,11.70,-37.05,29.1
2026/04/13 15:04:56.80,IMU,-51.27,-251.46,-1030.27,-33.70,16.95,3.25,10.35,16.05,-31.50,28.8
2026/04/13 15:04:56.90,IMU,-43.95,0.00,-1026.86,13.38,4.79,-13.14,13.05,15.30,-30.75,29.1
2026/04/13 15:04:57.00,IMU,-92.77,-77.64,-984.86,3.10,16.27,3.32,11.10,14.10,-31.20,29.1
2026/04/13 15:04:57.10,IMU,-26.37,-56.64,-1045.90,-2.64,12.42,-2.50,9.90,13.20,-32.40,29.1
2026/04/13 15:04:57.20,IMU,-35.64,-61.52,-1024.90,5.71,-1.46,-2.53,8.70,13.65,-32.70,29.3
2026/04/13 15:04:57.30,IMU,-46.88,-83.98,-1021.97,-4.63,0.57,1.75,9.75,13.05,-32.25,29.0
2026/04/13 15:04:57.40,IMU,3.42,-29.79,-1035.16,1.73,-0.08,2.14,8.25,11.85,-33.00,29.0
2026/04/13 15:04:57.50,IMU,-67.38,-64.94,-1022.46,-10.98,8.72,-5.61,9.30,12.30,-33.00,28.8
2026/04/13 15:04:57.60,IMU,-32.23,-19.04,-1021.97,-1.37,-0.65,0.02,9.90,12.15,-31.65,29.0
2026/04/13 15:04:57.70,IMU,-32.71,1.95,-1014.65,-8.81,-2.12,-0.37,13.05,13.35,-32.25,29.1
2026/04/13 15:04:57.80,IMU,-79.10,6.84,-1020.02,-8.18,-0.95,-0.86,12.60,14.10,-30.75,29.1
2026/04/13 15:04:57.91,IMU,-59.08,-1.95,-997.56,7.20,-5.05,-1.56,13.35,13.35,-31.50,29.1
2026/04/13 15:04:58.01,IMU,-60.55,23.93,-1011.23,-16.40,-4.24,1.37,15.00,12.90,-29.85,29.1
2026/04/13 15:04:58.11,IMU,-56.64,15.14,-1028.32,4.54,-0.66,-2.79,14.40,14.85,-29.40,29.1
2026/04/13 15:04:58.21,IMU,-111.82,-8.79,-1023.93,-0.80,-0.66,-8.59,13.20,14.40,-30.30,29.0
2026/04/13 15:04:58.31,IMU,-76.17,6.84,-1002.93,-5.28,4.89,-4.58,12.00,13.20,-30.60,29.1
2026/04/13 15:04:58.41,IMU,-60.55,5.86,-1029.30,15.85,9.45,2.72,10.20,12.90,-31.35,28.9
2026/04/13 15:04:58.51,IMU,-49.32,-62.01,-1002.44,10.33,-3.85,2.18,7.65,11.70,-31.65,28.7
2026/04/13 15:04:58.61,IMU,-23.44,-25.39,-1023.93,-2.71,-0.41,2.76,7.35,11.70,-33.15,29.1
2026/04/13 15:04:58.71,IMU,-50.29,-44.43,-1020.51,8.40,2.17,1.43,6.75,13.05,-33.30,29.0
2026/04/13 15:04:58.81,IMU,-70.31,-84.96,-973.14,0.02,1.22,-0.16,7.35,10.95,-33.15,29.1
2026/04/13 15:04:58.91,IMU,-44.43,-31.25,-1027.34,-1.73,5.07,5.90,7.35,12.15,-34.65,29.1
2026/04/13 15:04:59.01,IMU,-42.48,-31.25,-1027.34,5.67,4.08,-0.68,4.65,11.70,-32.40,29.1
2026/04/13 15:04:59.11,IMU,-24.90,-36.13,-1021.00,-6.30,-0.26,-4.12,6.00,11.85,-34.05,28.9
2026/04/13 15:04:59.21,IMU,-45.41,-29.30,-1007.81,-12.52,-5.35,-3.44,6.60,12.45,-34.20,29.1
2026/04/13 15:04:59.31,IMU,-74.71,-42.48,-1005.86,-0.99,-2.63,-4.63,10.05,12.30,-33.30,29.0
2026/04/13 15:04:59.41,IMU,-81.05,-13.18,-998.54,-10.79,-0.09,0.65,9.45,13.65,-34.20,28.8
2026/04/13 15:04:59.51,IMU,-80.57,30.27,-1012.21,-4.13,-4.54,1.82,10.20,12.45,-32.70,28.7
2026/04/13 15:04:59.61,IMU,-41.50,-23.93,-1020.02,-0.08,-7.15,2.08,11.10,13.80,-29.70,29.0
2026/04/13 15:04:59.71,IMU,-97.66,13.18,-1003.42,-5.92,-0.71,0.72,11.40,13.20,-32.10,29.1
2026/04/13 15:04:59.81,IMU,-101.07,-69.82,-944.34,7.87,-2.50,4.37,6.60,15.45,-37.50,28.9
2026/04/13 15:04:59.91,IMU,-125.49,3.42,-985.35,-28.81,-6.05,12.08,3.60,19.65,-42.15,29.1
2026/04/13 15:05:00.01,IMU,-119.14,117.19,-1065.92,-17.18,8.24,0.95,0.15,23.25,-42.00,28.8
2026/04/13 15:05:00.11,IMU,-79.59,35.64,-1027.83,9.71,10.91,-0.61,1.05,23.40,-44.70,29.1
2026/04/13 15:05:00.21,IMU,-48.83,118.65,-1020.51,-72.59,32.11,-27.69,-1.35,26.10,-44.25,29.1
2026/04/13 15:05:00.32,IMU,-32.71,200.68,-954.59,-9.80,49.29,-33.70,-1.95,28.20,-44.85,28.9
2026/04/13 15:05:00.42,IMU,167.48,153.32,-1042.48,11.89,99.28,-30.34,-6.15,26.10,-45.00,29.1
2026/04/13 15:05:00.52,IMU,379.88,180.18,-951.17,-6.86,185.10,-65.58,-20.40,25.20,-44.85,29.0
2026/04/13 15:05:00.62,IMU,556.64,203.13,-785.64,-5.73,16.76,-18.75,-25.50,24.75,-41.55,28.9
2026/04/13 15:05:00.72,IMU,421.88,302.73,-868.65,-33.95,-136.21,-14.54,-16.65,24.75,-43.05,29.0
2026/04/13 15:05:00.82,IMU,50.29,342.77,-1043.46,-4.17,-250.14,31.79,0.15,26.25,-42.75,29.0
2026/04/13 15:05:00.92,IMU,-227.54,294.43,-999.02,13.10,-44.89,15.44,14.70,26.10,-34.95,29.1
2026/04/13 15:05:01.02,IMU,-284.67,288.57,-962.89,38.27,2.58,4.53,16.50,25.35,-33.15,28.7
2026/04/13 15:05:01.12,IMU,-242.19,207.03,-952.15,21.89,27.09,-10.56,15.00,23.10,-34.20,29.1
2026/04/13 15:05:01.22,IMU,-194.82,178.22,-958.98,12.70,20.95,-2.66,12.75,20.10,-34.20,29.0
2026/04/13 15:05:01.32,IMU,-173.83,161.13,-1006.84,6.59,19.71,-0.80,9.90,19.65,-33.45,29.1
2026/04/13 15:05:01.42,IMU,-130.86,159.18,-955.08,6.47,22.53,-4.50,8.55,19.50,-35.85,29.1
2026/04/13 15:05:01.52,IMU,-75.68,135.74,-965.82,9.91,31.21,1.45,4.35,19.35,-38.25,29.0
2026/04/13 15:05:01.62,IMU,-117.19,89.36,-1032.23,4.45,17.04,-1.14,1.95,20.25,-41.25,28.8
2026/04/13 15:05:01.72,IMU,-116.70,102.54,-997.07,3.06,6.02,2.76,0.60,21.90,-42.45,29.0
2026/04/13 15:05:01.82,IMU,-84.47,105.96,-1005.37,4.15,2.67,1.31,-0.60,20.85,-42.15,29.1
2026/04/13 15:05:01.92,IMU,-70.31,105.47,-983.89,-0.40,-2.28,2.77,0.00,20.85,-41.10,29.0
2026/04/13 15:05:02.03,IMU,-82.03,112.79,-1004.39,1.40,3.82,-1.85,0.45,20.55,-40.50,28.9
2026/04/13 15:05:02.13,IMU,-100.59,84.47,-1002.44,0.26,-1.41,-0.87,0.60,18.90,-41.85,29.0
2026/04/13 15:05:02.23,IMU,-30.27,107.91,-1029.30,4.71,2.40,4.41,0.30,17.40,-41.40,29.1
2026/04/13 15:05:02.33,IMU,-80.08,83.98,-1000.49,7.19,5.63,-0.41,0.00,18.60,-40.65,29.0
2026/04/13 15:05:02.43,IMU,-36.13,102.05,-1002.44,9.66,23.31,3.44,-1.05,18.60,-42.15,28.9
2026/04/13 15:05:02.53,IMU,-4.88,40.53,-1004.88,19.29,3.40,4.53,-3.90,17.70,-43.20,29.1
2026/04/13 15:05:02.63,IMU,-4.88,35.16,-1003.91,14.21,-8.49,8.25,-4.20,18.00,-42.30,28.7
2026/04/13 15:05:02.73,IMU,18.07,-51.27,-1000.00,16.92,-10.99,12.20,-2.25,15.75,-41.25,28.9
2026/04/13 15:05:02.83,IMU,18.55,-13.67,-1029.79,20.70,-9.31,19.50,-3.00,14.85,-42.00,29.0
2026/04/13 15:05:02.93,IMU,-76.17,-80.08,-965.82,20.25,-18.99,19.15,-5.40,14.70,-43.95,29.1
2026/04/13 15:05:03.03,IMU,-13.18,-58.11,-1145.51,3.79,-20.02,13.97,-5.10,14.70,-42.90,29.0
2026/04/13 15:05:03.13,IMU,-88.38,-109.37,-1018.55,-3.22,-0.02,9.05,-3.90,15.45,-42.90,29.0
2026/04/13 15:05:03.23,IMU,-64.45,-231.93,-968.75,25.03,-2.21,26.34,-4.50,18.00,-42.75,28.9
2026/04/13 15:05:03.33,IMU,-111.82,-205.08,-992.68,20.39,7.17,-20.98,-5.85,15.45,-44.25,29.0
2026/04/13 15:05:03.43,IMU,-51.27,-151.37,-967.77,7.02,13.80,-3.65,-7.05,13.05,-43.35,29.2
2026/04/13 15:05:03.53,IMU,-290.04,-551.27,-1015.63,21.63,-23.08,-47.89,-7.50,11.85,-42.75,29.2
2026/04/13 15:05:03.63,IMU,-37.11,-174.80,-1050.78,4.07,17.57,-57.79,-7.95,9.45,-42.15,28.9
2026/04/13 15:05:03.73,IMU,16.11,-201.66,-918.95,-22.17,1.01,40.27,-8.70,8.70,-41.40,29.0
2026/04/13 15:05:03.83,IMU,-52.73,-128.91,-1022.46,-10.03,1.08,0.53,-7.95,10.20,-43.20,29.1
2026/04/13 15:05:03.93,IMU,-29.79,-137.70,-1005.86,-18.34,3.61,10.58,-8.70,12.15,-43.20,29.0
2026/04/13 15:05:04.03,IMU,-43.46,-105.96,-1045.41,-3.60,3.82,4.76,-7.65,14.70,-45.75,29.0
2026/04/13 15:05:04.13,IMU,-11.72,-107.91,-1009.28,-0.42,3.77,-1.60,-7.80,13.05,-44.85,29.0
2026/04/13 15:05:04.23,IMU,-8.79,-134.28,-1000.49,1.68,-5.02,-6.30,-9.15,12.45,-44.25,28.7
2026/04/13 15:05:04.33,IMU,-4.88,-113.77,-999.51,0.40,2.40,-0.88,-9.15,12.15,-45.00,29.1
2026/04/13 15:05:04.43,IMU,-17.58,-104.98,-998.54,0.40,-4.56,1.80,-8.55,13.05,-44.85,28.9
2026/04/13 15:05:04.54,IMU,-44.92,-95.21,-996.58,-1.33,0.74,0.52,-9.00,13.05,-43.35,29.0
2026/04/13 15:05:04.64,IMU,-25.88,-116.21,-1017.58,-0.79,-1.12,3.28,-7.95,12.90,-44.25,29.1
2026/04/13 15:05:04.74,IMU,-16.60,-100.10,-1012.21,2.17,1.95,5.22,-9.90,9.00,-45.00,29.0
2026/04/13 15:05:04.84,IMU,6.35,-129.88,-1005.86,2.52,1.76,1.66,-12.30,0.45,-42.75,28.9
2026/04/13 15:05:04.94,IMU,-6.35,-95.70,-1023.44,2.79,-0.12,-2.03,-11.10,-2.40,-37.65,28.9
2026/04/13 15:05:05.04,IMU,-1.95,-108.89,-1000.00,1.10,0.99,-4.52,-7.95,-0.30,-29.85,29.0
2026/04/13 15:05:05.14,IMU,-19.04,-120.61,-1015.14,-1.64,-1.38,-1.16,-9.00,1.65,-26.10,29.1
2026/04/13 15:05:05.24,IMU,-1.46,-113.28,-1000.49,-0.92,-0.21,0.84,-10.35,-0.90,-27.90,28.8
2026/04/13 15:05:05.34,IMU,-20.51,-123.05,-1003.42,-1.90,1.69,0.96,-10.65,-3.00,-29.55,29.0
2026/04/13 15:05:05.44,IMU,-26.86,-112.30,-1003.91,0.16,2.04,1.09,-12.30,-5.40,-29.40,29.1
2026/04/13 15:05:05.54,IMU,1.46,-117.19,-1003.42,2.19,0.39,2.40,-12.30,-6.60,-28.65,29.0
2026/04/13 15:05:05.64,IMU,-12.70,-127.44,-1002.44,3.38,-4.10,-2.04,-11.70,-8.70,-27.00,28.7
2026/04/13 15:05:05.74,IMU,2.44,-116.70,-1013.18,-0.56,1.34,0.15,-10.80,-6.90,-27.90,28.8
2026/04/13 15:05:05.84,IMU,11.23,-126.95,-999.02,1.98,1.36,0.25,-10.35,-8.10,-26.85,29.0
2026/04/13 15:05:05.94,IMU,-0.49,-121.58,-1025.88,3.74,1.03,3.60,-10.35,-6.60,-25.05,28.9
2026/04/13 15:05:06.04,IMU,-4.88,-127.93,-1007.32,3.21,1.74,-3.21,-10.35,-5.10,-23.25,29.1
2026/04/13 15:05:06.14,IMU,-3.42,-141.11,-1011.23,1.05,-1.44,1.12,-7.35,-3.30,-20.55,29.0
2026/04/13 15:05:06.24,IMU,-15.63,-130.37,-1000.00,0.52,0.15,3.02,-5.70,-2.70,-16.65,28.7
2026/04/13 15:05:06.34,IMU,-4.88,-105.96,-1019.53,0.88,1.24,-0.40,-3.00,0.45,-11.25,29.0
2026/04/13 15:05:06.44,IMU,5.86,-134.28,-1009.77,2.59,7.32,-2.04,-0.30,5.25,-7.20,28.8
2026/04/13 15:05:06.54,IMU,16.60,-137.70,-1008.79,-0.82,-2.22,0.53,-1.05,9.45,-6.00,28.9
2026/04/13 15:05:06.64,IMU,11.72,-140.14,-1009.28,-0.73,0.50,2.29,-1.65,8.85,-9.90,28.9
2026/04/13 15:05:06.74,IMU,5.37,-130.37,-1010.25,0.58,-3.11,1.92,-1.65,8.85,-10.20,28.8
2026/04/13 15:05:06.84,IMU,-2.44,-131.84,-1016.60,2.53,-1.20,1.47,-3.30,10.20,-9.60,29.1
2026/04/13 15:05:06.95,IMU,0.00,-143.07,-992.68,0.98,-0.38,1.59,-2.10,10.20,-12.15,28.8
2026/04/13 15:05:07.05,IMU,2.44,-132.32,-1005.86,-1.27,-0.64,-0.10,-3.60,11.25,-15.45,28.9
2026/04/13 15:05:07.15,IMU,2.93,-137.21,-1001.95,0.51,-0.18,-1.58,-6.75,9.30,-14.55,29.0
2026/04/13 15:05:07.25,IMU,0.49,-125.98,-1008.30,1.31,-0.80,1.41,-4.35,9.75,-17.25,28.9
2026/04/13 15:05:07.35,IMU,12.21,-147.95,-990.23,-0.17,-1.13,-0.93,-3.90,8.70,-17.25,29.1
2026/04/13 15:05:07.45,IMU,4.88,-120.12,-1016.11,1.49,-1.64,2.98,-4.20,8.10,-19.20,28.9
2026/04/13 15:05:07.55,IMU,22.46,-149.90,-1007.81,-0.87,1.54,-0.11,-5.10,7.20,-19.05,29.0
2026/04/13 15:05:07.65,IMU,-7.32,-137.21,-1011.72,-0.34,-0.07,-3.53,-5.70,4.65,-19.95,29.2
2026/04/13 15:05:07.75,IMU,10.74,-135.25,-1012.21,2.31,0.57,0.44,-6.15,4.80,-19.35,28.8
2026/04/13 15:05:07.85,IMU,13.18,-119.14,-1028.81,-0.27,0.83,1.76,-6.60,5.55,-19.80,29.0
2026/04/13 15:05:07.95,IMU,1.95,-120.61,-1006.35,-0.29,-0.81,-1.01,-5.40,9.45,-18.00,28.9
2026/04/13 15:05:08.05,IMU,-1.95,-129.39,-1013.18,0.11,-0.17,0.43,-3.30,7.50,-17.55,29.1
2026/04/13 15:05:08.15,IMU,4.88,-146.00,-1011.23,-1.38,-0.03,1.53,-7.95,6.00,-15.45,29.1
2026/04/13 15:05:08.25,IMU,11.72,-131.35,-1004.39,-0.83,-1.95,-2.44,-5.25,8.10,-18.45,29.1
2026/04/13 15:05:08.35,IMU,-0.49,-127.93,-1004.39,1.73,-0.56,0.43,-6.30,7.65,-19.20,29.2
2026/04/13 15:05:08.45,IMU,8.30,-123.05,-1003.91,0.99,2.53,-3.60,-5.25,7.35,-18.15,28.9
2026/04/13 15:05:08.55,IMU,-3.42,-142.58,-1008.79,0.53,-0.17,1.21,-5.25,5.85,-18.45,29.0
2026/04/13 15:05:08.65,IMU,19.04,-129.88,-1008.30,1.28,-0.52,0.23,-6.30,6.15,-20.70,29.1
2026/04/13 15:05:08.75,IMU,-7.32,-131.35,-1011.23,1.15,-1.46,1.71,-8.55,7.65,-21.75,29.1
2026/04/13 15:05:08.85,IMU,4.39,-128.42,-1010.25,0.21,0.40,-1.50,-5.10,7.95,-21.60,29.4
2026/04/13 15:05:08.95,IMU,11.23,-140.63,-1011.72,-1.09,-1.34,1.56,-5.70,8.10,-21.00,29.0
2026/04/13 15:05:09.05,IMU,7.32,-140.14,-1023.44,0.72,1.35,-0.74,-6.15,8.70,-21.15,29.2
2026/04/13 15:05:09.16,IMU,4.39,-125.98,-997.56,-0.38,1.45,-1.62,-7.65,5.55,-9.30,28.8
2026/04/13 15:05:09.26,IMU,4.88,-130.86,-1000.49,-0.56,-0.56,0.26,-6.75,8.85,-19.65,29.0
2026/04/13 15:05:09.36,IMU,13.18,-114.75,-1002.93,1.05,-0.11,-0.22,-4.95,8.85,-22.05,29.1
2026/04/13 15:05:09.46,IMU,11.23,-141.11,-1001.95,-1.34,-0.95,-0.28,-6.00,8.10,-23.25,28.9
2026/04/13 15:05:09.56,IMU,8.30,-134.77,-1011.72,-0.21,1.74,-0.76,-6.75,7.35,-23.55,29.1
2026/04/13 15:05:09.66,IMU,0.98,-122.07,-1002.44,-0.63,2.95,2.15,-6.75,6.60,-22.50,29.0
2026/04/13 15:05:09.76,IMU,2.44,-114.26,-1002.93,1.39,1.79,2.98,-6.60,5.25,-22.35,28.9
2026/04/13 15:05:09.86,IMU,11.72,-126.95,-1008.79,0.63,-2.65,-1.68,-6.60,3.00,-23.40,29.1
2026/04/13 15:05:09.96,IMU,-1.46,-136.72,-1013.18,-0.24,2.87,-0.07,-5.40,4.05,-23.10,28.9
2026/04/13 15:05:10.06,IMU,-8.79,-134.28,-1006.84,1.04,-0.96,2.82,-7.65,3.00,-23.10,29.1
2026/04/13 15:05:10.16,IMU,0.98,-120.61,-1019.04,0.15,0.09,-0.65,-7.80,0.90,-20.25,29.0
2026/04/13 15:05:10.26,IMU,-5.86,-131.84,-990.23,-0.34,-0.44,-0.40,-6.75,-0.90,-21.75,28.6
2026/04/13 15:05:10.36,IMU,3.42,-125.00,-1008.30,-0.63,-0.32,2.49,-7.05,-2.40,-20.70,29.1
2026/04/13 15:05:10.46,IMU,15.14,-132.32,-1013.67,0.50,-2.11,3.50,-7.95,-4.05,-20.10,29.1
2026/04/13 15:05:10.56,IMU,11.23,-131.35,-1007.81,2.21,-2.11,-3.54,-6.00,-2.40,-18.45,29.1
2026/04/13 15:05:10.66,IMU,23.44,-134.77,-1021.48,1.46,0.95,-1.21,-6.15,-2.25,-18.30,29.1
2026/04/13 15:05:10.76,IMU,4.88,-127.44,-992.19,1.38,0.50,0.45,-6.90,-2.55,-19.80,29.4
2026/04/13 15:05:10.86,IMU,10.74,-122.07,-1015.63,2.70,0.21,-3.72,-7.95,-1.50,-18.75,29.1
2026/04/13 15:05:10.96,IMU,18.07,-114.26,-1012.21,-0.79,-0.52,1.50,-6.00,-0.45,-17.10,29.1
2026/04/13 15:05:11.06,IMU,9.77,-128.42,-1008.30,-0.21,1.65,-0.62,-6.60,-2.55,-17.25,29.0
2026/04/13 15:05:11.16,IMU,21.97,-122.07,-1018.07,-0.40,-0.61,2.46,-6.90,-1.50,-17.55,29.1
2026/04/13 15:05:11.26,IMU,6.84,-140.14,-1000.98,1.73,0.77,-1.15,-4.35,-1.50,-16.95,28.8
2026/04/13 15:05:11.36,IMU,5.37,-132.32,-999.51,0.24,2.44,1.04,-6.60,-1.50,-16.50,29.1
2026/04/13 15:05:11.46,IMU,11.23,-130.86,-1006.84,-2.18,0.21,-0.08,-6.60,-4.50,-19.35,29.2
2026/04/13 15:05:11.56,IMU,-1.95,-136.23,-981.93,-0.31,1.36,-0.63,-7.35,-4.50,-18.75,29.0
2026/04/13 15:05:11.66,IMU,-9.77,-132.81,-986.82,2.47,1.59,1.14,-7.05,-1.95,-19.20,28.7
2026/04/13 15:05:11.77,IMU,2.93,-121.58,-993.65,-0.93,-0.31,-2.84,-6.00,-3.90,-17.85,29.1
2026/04/13 15:05:11.87,IMU,3.42,-125.49,-1009.77,-0.99,2.66,0.82,-7.35,-4.05,-18.30,29.0
2026/04/13 15:05:11.97,IMU,10.25,-130.86,-1007.32,-2.02,-2.27,0.37,-6.90,-4.05,-19.05,28.9
2026/04/13 15:05:12.07,IMU,15.63,-124.02,-1000.98,0.90,-0.56,-1.54,-7.50,-3.15,-18.45,29.1
2026/04/13 15:05:12.17,IMU,2.93,-127.93,-1013.67,-1.00,-0.38,0.65,-6.90,-1.50,-18.30,29.3
2026/04/13 15:05:12.27,IMU,17.58,-122.56,-1023.93,-0.80,-0.43,2.76,-6.00,-0.90,-19.95,28.9
2026/04/13 15:05:12.37,IMU,2.93,-140.63,-987.30,-0.32,0.72,-0.69,-6.90,-1.05,-19.35,29.1
2026/04/13 15:05:12.47,IMU,9.77,-128.91,-1022.46,1.37,1.16,0.56,-7.65,-2.25,-19.35,29.1
2026/04/13 15:05:12.57,IMU,11.72,-140.14,-1010.74,0.48,0.15,0.05,-6.30,-2.70,-18.45,29.0
2026/04/13 15:05:12.67,IMU,11.72,-148.93,-1001.46,-0.70,1.98,1.13,-7.05,-1.20,-19.65,28.7
2026/04/13 15:05:12.79,IMU,15.14,-129.39,-1012.21,0.86,0.73,-2.25,-8.55,-2.70,-21.00,29.1
2026/04/13 15:05:12.89,IMU,13.67,-137.70,-1008.79,-0.56,-3.18,2.62,-6.75,-2.70,-20.70,28.9
2026/04/13 15:05:12.99,IMU,-3.42,-127.44,-1014.16,1.89,-0.33,0.89,-7.80,-1.20,-20.70,29.1
2026/04/13 15:05:13.09,IMU,3.42,-115.72,-1000.00,2.69,-0.63,2.76,-6.15,-2.55,-19.05,29.2
2026/04/13 15:05:13.19,IMU,-9.28,-144.04,-1007.81,-1.02,-2.02,-1.17,-7.65,-2.25,-19.05,29.1
2026/04/13 15:05:13.29,IMU,-5.86,-130.86,-1001.95,-0.63,-2.76,-1.95,-6.75,-1.95,-21.00,29.2
2026/04/13 15:05:13.39,IMU,-20.51,-151.37,-990.23,-0.21,-4.74,-8.48,-6.15,-2.25,-20.55,29.0
2026/04/13 15:05:13.49,IMU,-53.22,-17.09,-892.09,-15.60,-12.94,-8.86,-6.60,-4.80,-18.00,29.1
2026/04/13 15:05:13.59,IMU,-10.74,-97.17,-955.08,-13.97,-21.78,-1.08,-5.25,-6.90,-19.65,29.1
2026/04/13 15:05:13.69,IMU,-112.79,-49.32,-1009.77,-30.60,-27.49,17.80,-2.85,-9.75,-24.15,28.9
2026/04/13 15:05:13.79,IMU,-175.29,-18.55,-1003.42,-35.52,-4.96,23.15,-0.45,-7.65,-34.05,29.3
2026/04/13 15:05:13.89,IMU,-127.44,72.27,-1034.18,-5.69,3.38,6.34,0.30,-6.75,-37.80,28.7
2026/04/13 15:05:13.99,IMU,-96.68,63.48,-1031.74,6.31,11.49,8.05,-0.45,-5.40,-37.95,29.0
2026/04/13 15:05:14.09,IMU,-81.54,57.13,-1041.99,1.05,12.27,-2.73,-1.35,-7.20,-37.80,28.9
2026/04/13 15:05:14.19,IMU,-13.18,57.13,-1064.94,-3.60,42.27,-18.21,-2.25,-5.85,-36.90,29.1
2026/04/13 15:05:14.30,IMU,12.70,111.33,-976.56,14.18,58.79,0.14,-7.80,-6.15,-34.80,29.1
2026/04/13 15:05:14.40,IMU,216.31,-7.81,-978.03,12.63,18.58,-5.02,-10.20,-4.05,-33.15,29.0
2026/04/13 15:05:14.50,IMU,188.96,37.11,-966.80,-2.11,45.06,3.31,-13.05,-2.40,-30.75,29.0
2026/04/13 15:05:14.60,IMU,280.27,48.34,-969.73,-15.14,39.20,-6.05,-14.70,-1.80,-30.90,29.0
2026/04/13 15:05:14.70,IMU,303.71,147.95,-890.63,-25.79,89.66,-4.60,-18.75,0.75,-30.30,29.1
2026/04/13 15:05:14.80,IMU,407.71,132.32,-976.56,-5.37,-21.54,-12.19,-15.15,1.95,-33.00,29.1
2026/04/13 15:05:14.90,IMU,417.48,110.84,-867.68,-15.94,32.47,4.22,-19.65,3.15,-34.05,29.1
2026/04/13 15:05:15.00,IMU,324.71,267.09,-893.55,-48.62,-13.28,4.69,-22.20,6.15,-34.35,29.1
2026/04/13 15:05:15.10,IMU,279.79,213.87,-1026.37,30.67,-47.54,12.93,-21.30,7.95,-36.00,29.1
2026/04/13 15:05:15.20,IMU,144.04,131.84,-956.05,34.34,-28.61,14.23,-19.20,6.15,-36.15,29.2
2026/04/13 15:05:15.30,IMU,187.50,132.81,-992.19,16.60,0.81,4.13,-17.70,6.60,-34.35,28.9
2026/04/13 15:05:15.40,IMU,220.70,119.63,-986.82,-3.07,32.25,-4.41,-18.00,7.50,-36.75,29.0
2026/04/13 15:05:15.50,IMU,186.04,100.10,-997.56,21.33,-3.96,-9.75,-19.20,7.65,-34.05,29.0
2026/04/13 15:05:15.60,IMU,199.22,73.24,-990.23,26.34,-23.65,-9.19,-18.00,4.80,-32.70,29.1
2026/04/13 15:05:15.70,IMU,203.61,26.37,-1024.90,7.10,-2.24,-9.05,-17.55,1.80,-31.65,29.3
2026/04/13 15:05:15.80,IMU,201.17,29.79,-995.61,-31.35,2.21,-8.40,-16.65,1.20,-29.70,29.1
2026/04/13 15:05:15.90,IMU,83.50,229.98,-1010.25,-21.63,-17.89,-14.84,-17.25,-1.50,-29.10,29.1
2026/04/13 15:05:16.00,IMU,118.65,141.60,-1097.66,14.38,-3.26,0.35,-15.60,-5.10,-30.00,29.2
2026/04/13 15:05:16.10,IMU,49.80,49.80,-958.50,3.35,5.53,-5.58,-16.65,-5.40,-30.45,29.1
2026/04/13 15:05:16.20,IMU,73.73,80.57,-996.09,7.92,0.29,0.88,-15.60,-5.85,-28.65,29.0
2026/04/13 15:05:16.30,IMU,107.91,84.47,-1028.32,-3.56,2.18,-0.88,-16.05,-7.95,-28.05,29.1
2026/04/13 15:05:16.40,IMU,83.98,63.48,-1003.42,-1.15,-1.50,-1.86,-15.00,-7.95,-28.80,29.3
2026/04/13 15:05:16.50,IMU,96.68,45.41,-1002.93,0.46,-4.08,2.28,-15.90,-6.60,-28.95,29.0
2026/04/13 15:05:16.60,IMU,84.47,25.88,-1007.81,1.37,0.06,1.53,-16.35,-8.10,-29.70,29.0
2026/04/13 15:05:16.70,IMU,105.47,21.97,-1083.01,11.31,-15.12,-2.11,-15.75,-9.00,-27.00,29.2
2026/04/13 15:05:16.81,IMU,56.64,74.71,-1045.41,-10.21,2.95,1.86,-7.80,-7.35,-20.70,29.0
2026/04/13 15:05:16.91,IMU,136.23,115.23,-1054.69,-4.41,4.14,7.03,-2.85,-3.75,-19.35,29.1
2026/04/13 15:05:17.01,IMU,122.56,99.61,-999.51,-4.37,-4.46,-0.50,-2.70,-0.15,-19.95,29.1
2026/04/13 15:05:17.11,IMU,112.79,40.04,-998.54,7.40,-0.04,9.40,-5.70,-0.90,-22.50,29.0
2026/04/13 15:05:17.21,IMU,67.87,107.91,-1016.11,1.70,4.32,5.10,-6.60,2.55,-24.90,28.9
2026/04/13 15:05:17.31,IMU,80.57,54.69,-1009.77,3.40,2.29,3.99,-11.40,3.75,-23.10,29.1
2026/04/13 15:05:17.41,IMU,107.42,84.47,-1021.97,-3.38,2.89,-2.10,-10.35,3.60,-28.65,29.0
2026/04/13 15:05:17.51,IMU,113.77,74.22,-995.12,2.89,-0.44,2.49,-11.10,1.95,-29.40,29.1
2026/04/13 15:05:17.61,IMU,90.82,62.99,-1012.70,-0.08,3.11,0.51,-14.10,0.90,-31.20,29.4
2026/04/13 15:05:17.71,IMU,89.36,72.27,-1001.46,1.02,0.73,-1.91,-14.10,0.45,-31.20,29.1
2026/04/13 15:05:17.81,IMU,100.10,75.20,-993.16,0.99,0.56,1.17,-12.60,0.45,-29.70,29.1
2026/04/13 15:05:17.91,IMU,93.26,62.99,-986.82,2.32,0.70,0.02,-14.40,2.40,-30.75,29.0
2026/04/13 15:05:18.01,IMU,100.10,61.04,-1006.35,-0.61,0.51,3.37,-13.20,1.50,-31.35,29.1
2026/04/13 15:05:18.14,IMU,105.47,65.43,-1000.00,1.27,-0.90,0.24,-14.70,0.75,-31.65,29.1
2026/04/13 15:05:18.24,IMU,105.47,70.31,-1016.60,0.93,1.37,0.21,-14.40,0.90,-31.80,28.9
2026/04/13 15:05:18.34,IMU,101.07,73.73,-994.14,1.22,-2.76,2.44,-13.65,0.90,-30.45,29.1
2026/04/13 15:05:18.44,IMU,88.87,64.45,-1001.46,0.08,-0.52,3.04,-13.95,-0.75,-30.30,29.1
2026/04/13 15:05:18.54,IMU,78.61,66.89,-1018.07,0.85,0.95,0.43,-13.95,0.75,-30.30,29.1
2026/04/13 15:05:18.64,IMU,90.33,60.06,-1013.18,2.09,0.07,2.73,-12.60,1.20,-31.20,29.1
2026/04/13 15:05:18.74,IMU,108.89,66.41,-1003.42,2.33,-4.26,1.06,-14.10,0.90,-30.45,29.1
2026/04/13 15:05:18.84,IMU,79.10,66.89,-1000.49,1.32,-4.73,-1.63,-14.85,-1.20,-30.45,29.1
2026/04/13 15:05:18.94,IMU,106.45,58.59,-1007.81,0.79,1.23,-0.31,-13.20,-1.80,-30.30,28.9
2026/04/13 15:05:19.05,IMU,81.05,60.06,-1012.21,0.49,-3.14,-1.10,-10.95,-0.75,-29.55,29.1
2026/04/13 15:05:19.15,IMU,80.57,70.31,-1004.39,1.35,-1.02,1.35,-12.75,1.50,-28.50,29.3
2026/04/13 15:05:19.25,IMU,89.84,59.57,-1019.04,-1.12,-1.28,1.79,-13.50,1.80,-30.30,29.1
2026/04/13 15:05:19.35,IMU,72.75,54.20,-1012.21,-0.02,0.35,1.21,-11.70,1.80,-28.80,28.9
2026/04/13 15:05:19.45,IMU,89.36,73.24,-1001.46,-0.47,-1.14,-0.57,-9.90,2.55,-27.75,29.1
2026/04/13 15:05:19.55,IMU,91.31,63.48,-1003.91,-0.79,3.85,-0.15,-13.35,0.90,-28.95,29.2
2026/04/13 15:05:19.65,IMU,87.40,63.96,-1011.23,0.82,1.82,1.32,-12.30,2.70,-30.00,29.1
2026/04/13 15:05:19.75,IMU,80.57,68.85,-996.58,0.51,2.70,0.24,-12.60,0.90,-30.75,29.3
2026/04/13 15:05:19.85,IMU,99.61,64.94,-1006.35,0.87,-0.55,1.14,-12.60,3.60,-30.00,29.1
2026/04/13 15:05:19.95,IMU,93.75,78.61,-1021.97,-0.76,0.98,0.79,-14.10,3.90,-31.20,29.1
2026/04/13 15:05:20.05,IMU,83.50,50.78,-1000.49,1.85,2.64,0.69,-14.10,1.20,-31.50,29.2
2026/04/13 15:05:20.15,IMU,92.29,59.08,-1011.23,2.74,-2.31,2.09,-14.10,2.40,-30.45,29.0
2026/04/13 15:05:20.29,IMU,88.38,71.78,-1005.37,-1.78,0.63,-0.52,-15.75,2.25,-33.45,29.0
2026/04/13 15:05:20.39,IMU,81.05,60.55,-995.61,0.31,1.53,-0.14,-15.45,2.25,-35.25,29.1
2026/04/13 15:05:20.49,IMU,101.56,79.59,-1000.49,0.85,-1.34,0.15,-15.75,1.80,-34.65,29.1
2026/04/13 15:05:20.59,IMU,82.03,45.41,-989.26,1.57,-1.69,2.19,-15.15,1.95,-35.10,29.0
2026/04/13 15:05:20.69,IMU,97.17,62.01,-1001.95,-0.45,0.31,0.55,-14.25,3.30,-33.45,29.6
2026/04/13 15:05:20.79,IMU,85.94,62.99,-1004.88,-1.92,0.65,-1.11,-15.15,2.70,-34.35,29.0
2026/04/13 15:05:20.89,IMU,83.01,62.99,-999.02,0.21,-0.02,-1.34,-15.15,3.15,-33.60,29.1
2026/04/13 15:05:20.99,IMU,83.01,57.62,-1002.44,-1.24,2.54,0.83,-13.50,3.75,-33.45,29.1
2026/04/13 15:05:21.09,IMU,91.80,59.08,-1007.81,-0.15,1.34,-0.40,-15.60,2.40,-33.60,29.1
2026/04/13 15:05:21.19,IMU,74.71,62.99,-997.56,-0.86,-1.47,1.07,-12.60,4.65,-32.55,29.1
2026/04/13 15:05:21.29,IMU,41.50,64.94,-1023.44,-1.92,2.12,-8.16,-14.10,0.90,-31.80,29.1
2026/04/13 15:05:21.39,IMU,103.03,92.29,-999.51,5.50,-3.04,0.05,-14.85,-0.15,-33.00,29.1
2026/04/13 15:05:21.49,IMU,69.82,92.29,-1010.74,5.34,-1.31,-1.33,-14.40,-3.15,-32.25,29.1
2026/04/13 15:05:21.59,IMU,87.40,55.66,-1022.46,4.60,-4.44,-3.13,-16.05,-4.05,-34.20,29.4
2026/04/13 15:05:21.69,IMU,83.01,90.82,-1009.28,-1.45,-4.10,4.69,-15.90,-3.60,-33.60,29.3
2026/04/13 15:05:21.79,IMU,58.59,62.50,-1012.21,2.18,-2.55,-2.85,-15.45,-3.30,-35.70,29.0
2026/04/13 15:05:21.89,IMU,75.68,41.02,-1014.65,0.03,-1.65,1.42,-16.35,-1.65,-34.05,29.3
2026/04/13 15:05:21.99,IMU,70.31,77.15,-1012.21,-13.27,0.10,-5.84,-15.90,-1.65,-34.05,29.4
2026/04/13 15:05:22.09,IMU,38.09,60.06,-1012.21,-3.58,-12.35,1.32,-14.85,-3.15,-32.55,29.1
2026/04/13 15:05:22.19,IMU,42.97,77.15,-999.02,-2.02,-8.05,0.59,-14.25,-3.30,-32.70,29.2
2026/04/13 15:05:22.29,IMU,47.85,69.34,-1010.74,-0.05,-3.44,-1.86,-14.25,-4.05,-33.90,29.1
2026/04/13 15:05:22.39,IMU,30.76,86.91,-1005.86,6.79,0.61,2.01,-13.35,-3.15,-34.05,29.1
2026/04/13 15:05:22.49,IMU,32.23,82.03,-1016.60,6.64,0.60,0.74,-13.50,-1.05,-32.40,29.1
2026/04/13 15:05:22.60,IMU,31.74,39.55,-994.14,2.82,6.16,-0.47,-14.10,-3.15,-33.30,29.4
2026/04/13 15:05:22.70,IMU,36.13,69.34,-1027.34,11.69,-14.11,-2.87,-12.60,-3.90,-32.55,29.1
2026/04/13 15:05:22.80,IMU,59.57,17.58,-1062.50,1.98,-10.73,-1.82,-12.75,-4.50,-30.60,29.0
2026/04/13 15:05:22.90,IMU,0.49,-58.59,-1022.46,29.24,-11.40,-9.81,-9.90,-5.55,-31.65,29.1
2026/04/13 15:05:23.00,IMU,-9.28,37.11,-1055.66,1.71,-10.45,-1.00,-10.20,-8.70,-27.00,29.4
2026/04/13 15:05:23.10,IMU,-24.41,-6.35,-993.65,-7.34,-13.82,3.88,-10.05,-8.85,-28.65,29.1
2026/04/13 15:05:23.20,IMU,6.84,364.26,-1094.73,-11.40,-4.50,9.94,-9.00,-8.85,-28.65,29.2
2026/04/13 15:05:23.30,IMU,-33.20,56.15,-1023.93,0.18,14.53,3.66,-9.30,-7.35,-32.55,29.1
2026/04/13 15:05:23.40,IMU,-35.16,-61.52,-984.38,4.85,4.54,7.25,-13.95,-7.20,-30.90,29.1
2026/04/13 15:05:23.50,IMU,-9.28,41.50,-1026.86,-0.97,-0.82,2.92,-10.35,-4.65,-33.30,29.3
2026/04/13 15:05:23.60,IMU,-25.39,22.95,-1024.90,6.79,7.00,-1.07,-11.40,-3.75,-34.65,29.3
2026/04/13 15:05:23.70,IMU,-11.72,13.67,-1008.30,-2.46,8.08,-0.63,-12.30,-3.60,-34.80,29.3
2026/04/13 15:05:23.80,IMU,15.63,6.84,-1020.02,3.12,-1.95,0.66,-13.95,-3.00,-34.20,28.9
2026/04/13 15:05:23.90,IMU,-13.67,-14.16,-1026.37,5.65,-5.24,1.68,-11.10,-3.60,-34.80,29.1
2026/04/13 15:05:24.00,IMU,-40.04,1.95,-997.56,-5.57,-9.34,-1.38,-11.55,-3.15,-34.35,29.2
2026/04/13 15:05:24.10,IMU,-24.90,27.34,-1013.67,-6.93,-4.67,-1.80,-10.20,-5.25,-33.15,29.1
2026/04/13 15:05:24.20,IMU,0.49,57.13,-1027.34,1.18,3.32,-3.70,-10.05,-8.10,-32.55,29.0
2026/04/13 15:05:24.30,IMU,21.48,-6.84,-992.68,10.18,0.31,-1.44,-10.65,-7.95,-32.70,28.9
2026/04/13 15:05:24.40,IMU,-21.48,44.92,-1017.58,2.36,1.15,0.82,-10.35,-7.35,-28.65,28.9
2026/04/13 15:05:24.50,IMU,-16.11,79.10,-1011.72,-9.76,1.76,4.34,-6.15,-4.50,-33.45,29.2
2026/04/13 15:05:24.60,IMU,6.84,28.81,-1018.55,-1.63,0.38,1.79,-5.70,-3.60,-31.80,29.4
2026/04/13 15:05:24.70,IMU,16.11,312.50,-1105.47,2.53,-7.40,2.48,-1.80,-4.05,-32.40,29.0
2026/04/13 15:05:24.80,IMU,-31.74,-60.06,-921.39,-34.69,6.83,-3.76,-4.65,-3.30,-33.15,29.2
2026/04/13 15:05:24.90,IMU,12.21,93.26,-1066.41,13.92,-0.93,1.76,-1.20,-5.85,-31.50,29.1
2026/04/13 15:05:25.01,IMU,-3.42,20.02,-1024.90,-1.24,-1.47,1.27,-3.00,-3.15,-33.30,29.2
2026/04/13 15:05:25.11,IMU,4.88,115.23,-1001.95,2.44,-2.11,2.08,-2.70,-5.85,-32.25,29.3
2026/04/13 15:05:25.21,IMU,-4.39,69.82,-1028.32,2.15,3.26,-2.53,-3.60,-5.55,-32.70,29.0
2026/04/13 15:05:25.31,IMU,-13.67,68.36,-1008.79,-0.66,-1.71,-6.20,-2.70,-8.10,-30.75,29.2
2026/04/13 15:05:25.41,IMU,-5.37,63.96,-1027.34,3.95,1.88,-1.63,-6.30,-10.80,-25.80,29.1
2026/04/13 15:05:25.51,IMU,-0.98,62.01,-1024.41,1.44,0.52,1.00,-3.00,-10.05,-29.70,29.1
2026/04/13 15:05:25.61,IMU,-15.63,69.82,-1006.35,3.04,1.51,-0.61,-3.75,-10.05,-28.20,29.4
2026/04/13 15:05:25.71,IMU,7.32,73.24,-1000.00,-2.34,0.44,2.13,-2.85,-8.25,-30.60,29.4
2026/04/13 15:05:25.81,IMU,-25.39,69.34,-1018.55,-6.21,0.92,0.85,-3.90,-7.50,-30.90,29.1
2026/04/13 15:05:25.91,IMU,-0.98,57.13,-1021.00,0.97,-1.80,-2.75,-3.30,-8.25,-30.90,29.1
2026/04/13 15:05:26.01,IMU,-21.97,103.03,-1019.53,-0.03,1.00,4.28,-1.95,-8.10,-30.45,29.1
2026/04/13 15:05:26.11,IMU,14.65,136.72,-1017.09,-5.01,-0.69,-2.42,-1.65,-8.85,-29.70,29.4
2026/04/13 15:05:26.21,IMU,15.63,97.17,-1027.83,-5.50,-1.44,-0.44,-2.10,-9.45,-29.55,28.8
2026/04/13 15:05:26.31,IMU,-20.02,43.46,-1006.84,5.10,3.28,1.12,-2.70,-6.15,-32.25,29.1
2026/04/13 15:05:26.42,IMU,20.02,98.14,-1027.34,-2.56,-1.02,3.98,-3.30,-6.45,-32.70,29.2
2026/04/13 15:05:26.52,IMU,-7.81,104.49,-1067.38,7.65,0.91,0.91,-2.70,-4.65,-34.35,28.9
2026/04/13 15:05:26.62,IMU,-8.30,2.93,-998.54,-10.52,6.29,-0.59,-4.50,-1.20,-35.85,29.3
2026/04/13 15:05:26.72,IMU,12.70,90.82,-1011.72,4.79,-2.48,4.12,-2.70,-2.40,-36.90,29.1
2026/04/13 15:05:26.82,IMU,75.20,29.79,-1158.20,-8.30,17.89,-4.35,-4.65,-1.50,-36.45,29.2
2026/04/13 15:05:26.92,IMU,4.39,11.23,-983.89,0.25,0.63,-0.46,-4.65,-1.05,-37.05,29.2
2026/04/13 15:05:27.02,IMU,-1.46,43.46,-990.72,-1.78,-0.85,1.44,-4.95,-1.95,-36.90,29.3
2026/04/13 15:05:27.12,IMU,-15.14,59.08,-997.56,0.53,-2.42,-1.32,-5.40,-3.30,-36.75,29.2
2026/04/13 15:05:27.22,IMU,-21.48,70.31,-1014.65,-1.33,-6.08,2.30,-4.35,-1.05,-35.25,29.1
2026/04/13 15:05:27.32,IMU,-32.71,74.71,-1008.79,1.85,-4.67,-2.76,-3.00,-0.90,-36.60,29.1
2026/04/13 15:05:27.42,IMU,-22.46,86.43,-1013.67,-0.33,0.45,1.14,-4.50,-1.95,-37.95,29.1
2026/04/13 15:05:27.52,IMU,-29.30,66.89,-1022.95,-1.39,2.79,2.57,-5.10,-1.80,-37.05,29.1
2026/04/13 15:05:27.62,IMU,-52.73,30.76,-1039.55,-3.29,1.73,0.11,-5.10,-0.30,-36.75,29.2
2026/04/13 15:05:27.72,IMU,-15.14,64.45,-1019.04,-0.17,1.94,-1.56,-4.50,-1.20,-37.35,29.3
2026/04/13 15:05:27.82,IMU,-17.58,67.38,-1005.37,0.18,0.22,0.36,-4.65,-0.30,-37.80,29.5
2026/04/13 15:05:27.92,IMU,-2.44,54.20,-1010.25,1.95,-0.66,0.72,-4.95,-1.95,-37.95,29.2
2026/04/13 15:05:28.02,IMU,-11.23,72.75,-1014.16,-2.54,-3.84,-1.95,-4.65,-1.05,-36.45,29.1
2026/04/13 15:05:28.12,IMU,-14.16,57.13,-1017.58,-0.15,-4.01,-0.43,-5.40,-1.80,-36.45,29.1
2026/04/13 15:05:28.22,IMU,-24.41,82.52,-1009.77,2.59,-1.09,-0.19,-3.90,-3.00,-34.95,29.2
2026/04/13 15:05:28.32,IMU,-32.71,64.94,-1008.79,0.82,-4.78,-0.63,-5.40,-1.80,-35.70,29.0
2026/04/13 15:05:28.42,IMU,-47.36,66.89,-1021.48,1.24,-6.73,1.94,-4.50,-0.45,-36.15,29.6
