Timestamp,Sensor,AccX,AccY,AccZ,GyrX,GyrY,GyrZ,MagX,MagY,MagZ,Temp
2026/04/20 22:43:23.03,IMU,-180.18,-166.50,-994.14,-1.49,0.27,3.01,-5.85,-0.75,-63.75,34.3
2026/04/20 22:43:23.13,IMU,-188.48,-172.85,-995.12,-0.16,0.51,2.18,-2.25,1.20,-66.15,34.3
2026/04/20 22:43:23.23,IMU,-185.55,-169.43,-1001.46,0.62,-0.04,1.15,-2.70,0.15,-67.20,34.2
2026/04/20 22:43:23.33,IMU,-182.62,-153.81,-983.40,0.40,0.60,1.50,-2.55,1.05,-67.35,34.3
2026/04/20 22:43:23.43,IMU,-174.80,-162.11,-989.26,-0.26,1.28,1.23,-2.55,1.80,-66.30,34.3
2026/04/20 22:43:23.53,IMU,-191.41,-163.57,-1001.46,0.31,0.21,0.29,-4.20,1.65,-67.95,34.1
2026/04/20 22:43:23.63,IMU,-188.96,-169.92,-985.84,-1.31,0.38,-1.13,-2.85,2.25,-66.30,34.3
2026/04/20 22:43:23.73,IMU,-177.25,-156.74,-990.72,-0.89,1.18,1.55,-2.70,1.20,-66.45,34.5
2026/04/20 22:43:23.83,IMU,-195.31,-166.99,-998.54,1.66,-1.07,-1.93,-0.30,1.80,-70.35,34.3
2026/04/20 22:43:23.93,IMU,-162.11,-164.06,-1005.37,0.41,-0.15,2.43,-1.95,1.65,-65.85,34.4
2026/04/20 22:43:24.01,IMU,-186.04,-161.13,-999.02,-1.08,0.53,3.49,-3.45,0.45,-67.20,34.3
2026/04/20 22:43:24.11,IMU,-185.06,-166.02,-999.02,1.21,-1.31,-0.41,-2.10,1.50,-67.05,34.4
2026/04/20 22:43:24.21,IMU,-200.20,-172.36,-981.45,1.12,1.27,1.84,-2.70,0.90,-67.95,34.2
2026/04/20 22:43:24.31,IMU,-182.13,-167.97,-999.51,-1.90,1.50,-0.27,-1.95,0.90,-67.65,34.4
2026/04/20 22:43:24.41,IMU,-188.96,-172.36,-986.82,-0.66,1.53,-0.51,-1.95,1.65,-67.20,34.5
2026/04/20 22:43:24.51,IMU,-192.38,-166.99,-996.58,1.41,0.98,2.43,-1.80,1.05,-67.05,34.4
2026/04/20 22:43:24.61,IMU,-192.38,-173.83,-979.00,-1.05,0.80,0.55,-3.30,1.05,-66.75,34.5
2026/04/20 22:43:24.71,IMU,-189.94,-170.90,-995.61,1.26,1.07,-1.14,-1.65,2.40,-67.65,34.5
2026/04/20 22:43:24.81,IMU,-187.50,-168.46,-994.14,-2.17,1.49,-0.88,-1.95,1.20,-66.45,34.6
2026/04/20 22:43:24.91,IMU,-179.20,-160.16,-994.14,1.68,-0.17,0.24,-2.85,1.05,-67.35,34.6
2026/04/20 22:43:25.02,IMU,-169.92,-159.67,-997.07,-0.35,-0.01,1.40,-1.95,1.20,-66.90,34.5
2026/04/20 22:43:25.12,IMU,-198.73,-154.30,-985.84,-0.35,0.50,-3.29,-1.80,1.05,-66.30,34.5
2026/04/20 22:43:25.22,IMU,-196.78,-168.46,-993.16,1.62,0.40,-1.39,-0.60,2.25,-66.75,34.5
2026/04/20 22:43:25.32,IMU,-187.01,-167.48,-999.51,-0.89,-2.73,-0.35,-3.90,2.55,-66.30,34.7
2026/04/20 22:43:25.42,IMU,-179.69,-143.55,-999.02,-0.26,0.15,3.45,-3.45,1.20,-66.15,34.6
2026/04/20 22:43:25.52,IMU,-183.11,-163.57,-992.19,-0.62,0.64,1.35,-2.70,3.15,-67.20,34.4
2026/04/20 22:43:25.62,IMU,-191.89,-172.36,-1004.88,0.85,-0.98,-0.45,-3.30,1.80,-66.75,34.2
2026/04/20 22:43:25.72,IMU,-193.85,-173.34,-996.58,-0.55,-0.19,-1.76,-2.10,1.80,-66.75,34.5
2026/04/20 22:43:25.83,IMU,-176.27,-169.92,-1002.44,0.68,1.65,0.71,-3.00,0.90,-66.45,34.5
2026/04/20 22:43:25.93,IMU,-192.38,-171.39,-997.56,-0.10,0.29,-0.44,-1.35,2.55,-66.00,34.5
2026/04/20 22:43:26.03,IMU,-195.80,-156.74,-996.58,-0.56,0.14,1.38,-1.95,2.70,-67.20,34.3
2026/04/20 22:43:26.13,IMU,-179.69,-160.16,-1003.91,1.31,1.66,0.53,-2.10,2.25,-67.35,34.7
2026/04/20 22:43:26.23,IMU,-188.48,-177.25,-1004.88,-0.36,-0.52,-0.09,-2.55,2.25,-67.80,34.6
2026/04/20 22:43:26.33,IMU,-186.52,-164.55,-994.63,-0.30,2.92,-0.07,-1.35,1.05,-68.55,34.6
2026/04/20 22:43:26.43,IMU,-179.20,-164.06,-1000.49,0.32,0.69,0.12,-3.00,0.90,-68.25,34.5
2026/04/20 22:43:26.53,IMU,-191.41,-168.95,-1005.86,0.80,0.83,-2.50,-2.10,0.75,-67.05,34.7
2026/04/20 22:43:26.63,IMU,-190.43,-167.97,-1001.46,0.94,0.29,-1.34,-3.60,0.30,-66.00,34.5
2026/04/20 22:43:26.73,IMU,-188.96,-161.13,-1000.49,0.09,-1.18,1.48,-3.30,1.50,-67.35,34.6
2026/04/20 22:43:26.83,IMU,-177.73,-172.85,-989.75,-2.53,0.63,1.40,-2.25,-0.45,-66.45,34.3
2026/04/20 22:43:26.93,IMU,-187.01,-165.04,-994.14,1.79,-1.49,-1.97,-3.00,1.20,-67.20,34.7
2026/04/20 22:43:27.03,IMU,-192.38,-155.76,-993.16,-1.47,0.47,-0.54,-3.75,0.90,-66.45,34.6
2026/04/20 22:43:27.13,IMU,-183.11,-169.92,-992.68,-0.23,1.32,-3.28,-2.55,1.50,-67.80,34.7
2026/04/20 22:43:27.23,IMU,-183.11,-175.29,-988.28,-2.02,-0.09,-1.02,-2.70,0.90,-66.45,34.5
2026/04/20 22:43:27.34,IMU,-194.82,-173.83,-1005.37,1.45,-0.25,-2.52,-4.35,2.25,-66.75,34.7
2026/04/20 22:43:27.44,IMU,-184.57,-161.13,-1005.86,-0.04,0.08,0.14,-2.85,2.25,-67.80,34.9
2026/04/20 22:43:27.54,IMU,-183.59,-168.46,-993.65,2.15,1.38,-0.08,-2.70,0.45,-65.85,34.6
2026/04/20 22:43:27.64,IMU,-192.38,-171.88,-992.19,1.11,0.85,-0.26,-2.10,0.30,-66.00,34.7
2026/04/20 22:43:27.74,IMU,-177.73,-160.16,-1006.35,0.45,-0.40,0.02,-4.35,1.05,-67.35,34.9
2026/04/20 22:43:27.84,IMU,-178.22,-169.43,-1001.46,-0.34,0.09,-0.80,-3.00,0.15,-66.90,34.9
2026/04/20 22:43:27.94,IMU,-189.94,-157.23,-994.63,0.36,1.34,0.27,-1.20,1.95,-67.95,34.6
2026/04/20 22:43:28.04,IMU,-188.48,-164.06,-990.72,1.15,0.19,-1.33,-3.00,0.90,-66.45,34.6
2026/04/20 22:43:28.14,IMU,-193.36,-166.50,-992.68,1.16,0.40,-0.05,-5.70,0.45,-64.05,34.7
2026/04/20 22:43:28.24,IMU,-187.50,-157.23,-1003.42,-0.58,-0.69,-0.79,-1.80,1.80,-66.75,35.0
2026/04/20 22:43:28.34,IMU,-178.71,-165.04,-1002.93,-1.79,2.12,2.05,-1.95,0.90,-67.20,34.9
2026/04/20 22:43:28.44,IMU,-183.59,-154.30,-990.72,-0.10,-0.49,-2.26,-1.35,1.05,-64.95,34.7
2026/04/20 22:43:28.54,IMU,-186.52,-170.41,-1009.77,1.29,-0.51,1.12,-2.70,2.70,-66.90,34.9
2026/04/20 22:43:28.64,IMU,-185.55,-148.93,-1003.91,-0.60,0.03,-0.15,-1.65,1.65,-66.15,34.7
2026/04/20 22:43:28.74,IMU,-189.94,-166.99,-1009.28,-0.04,-1.15,-0.45,-1.95,0.90,-66.45,34.7
2026/04/20 22:43:28.84,IMU,-186.52,-161.13,-1000.49,1.90,0.25,1.05,-1.95,1.65,-66.90,34.6
2026/04/20 22:43:28.95,IMU,-175.78,-151.37,-1005.86,1.73,-1.27,0.98,-1.35,1.80,-67.80,34.7
2026/04/20 22:43:29.05,IMU,-182.62,-170.41,-1010.74,1.02,0.41,-1.31,-2.10,0.00,-67.05,34.8
2026/04/20 22:43:29.15,IMU,-186.04,-164.06,-995.61,1.08,-0.50,-0.10,-4.50,-1.95,-62.85,34.7
2026/04/20 22:43:29.25,IMU,-179.69,-160.16,-1004.88,0.88,-0.42,2.67,-3.60,2.25,-67.80,35.0
2026/04/20 22:43:29.35,IMU,-182.13,-169.43,-1003.42,-1.11,-0.25,0.43,-2.25,1.20,-68.25,34.7
2026/04/20 22:43:29.45,IMU,-196.78,-159.18,-997.56,-0.83,2.33,-0.89,-2.55,1.80,-67.05,34.7
2026/04/20 22:43:29.55,IMU,-192.87,-162.60,-996.58,0.32,-0.73,0.11,-3.45,2.70,-67.20,34.6
2026/04/20 22:43:29.65,IMU,-180.66,-167.48,-990.23,-0.65,0.08,1.52,-2.85,2.55,-67.05,34.9
2026/04/20 22:43:29.75,IMU,-196.78,-171.39,-1002.44,0.22,0.75,-0.79,-2.55,2.25,-66.75,34.7
2026/04/20 22:43:29.85,IMU,-188.48,-177.25,-988.28,-1.16,-0.68,-0.17,-2.85,2.25,-67.80,34.7
2026/04/20 22:43:29.95,IMU,-198.24,-156.25,-990.23,1.00,0.42,0.08,-3.75,1.20,-68.25,35.0
2026/04/20 22:43:30.05,IMU,-177.25,-153.81,-992.19,0.26,0.02,0.34,-1.35,0.00,-66.75,34.8
2026/04/20 22:43:30.16,IMU,-190.92,-152.34,-989.75,-0.27,-1.29,-0.20,-6.00,-0.45,-63.30,35.0
2026/04/20 22:43:30.26,IMU,-191.89,-166.02,-998.54,0.31,0.15,-1.54,-3.30,0.00,-66.75,34.9
2026/04/20 22:43:30.36,IMU,-186.52,-164.06,-1002.93,-0.18,0.25,-0.39,-2.85,1.05,-67.05,35.1
2026/04/20 22:43:30.46,IMU,-193.36,-165.53,-985.35,-1.01,0.43,-0.26,-3.30,1.80,-66.75,35.1
2026/04/20 22:43:30.56,IMU,-183.11,-164.55,-1005.86,1.85,-0.74,-2.96,-1.20,1.20,-67.65,35.0
2026/04/20 22:43:30.66,IMU,-185.06,-165.53,-1006.84,-0.05,-1.53,1.07,-1.80,1.50,-67.05,35.1
2026/04/20 22:43:30.76,IMU,-182.62,-165.04,-994.63,-0.05,0.10,-2.08,-1.65,2.70,-66.45,34.9
2026/04/20 22:43:30.86,IMU,-187.01,-165.04,-997.07,-1.61,0.29,0.02,-3.60,1.80,-66.75,34.7
2026/04/20 22:43:30.96,IMU,-187.01,-151.37,-992.68,-1.19,-1.09,1.12,-1.05,1.50,-66.30,34.9
2026/04/20 22:43:31.06,IMU,-192.87,-160.64,-999.51,0.26,-1.15,0.18,-3.30,1.05,-67.05,35.1
2026/04/20 22:43:31.17,IMU,-184.08,-173.34,-993.16,1.51,0.21,-1.15,-1.95,1.95,-67.65,35.0
2026/04/20 22:43:31.27,IMU,-181.64,-166.02,-1002.93,-0.40,1.00,2.21,-2.25,1.65,-67.65,35.1
2026/04/20 22:43:31.37,IMU,-177.25,-157.71,-1006.84,0.66,2.23,1.01,-2.25,1.95,-66.15,35.1
2026/04/20 22:43:31.47,IMU,-190.92,-166.02,-995.61,-0.25,0.57,1.23,-2.25,-0.45,-68.25,35.4
2026/04/20 22:43:31.57,IMU,-180.18,-175.78,-989.75,0.53,-0.08,1.08,-1.95,0.90,-66.15,35.2
2026/04/20 22:43:31.67,IMU,-187.50,-163.57,-993.65,-0.79,0.64,0.42,-2.70,1.95,-66.90,34.9
2026/04/20 22:43:31.77,IMU,-181.64,-165.53,-1006.35,1.63,-0.54,-1.00,-3.45,0.90,-66.15,34.9
2026/04/20 22:43:31.87,IMU,-171.39,-157.71,-998.54,-0.67,0.51,-0.95,-3.30,1.05,-66.30,34.9
2026/04/20 22:43:31.97,IMU,-186.52,-168.95,-1013.67,0.54,2.82,-0.56,-1.05,1.50,-66.75,35.1
2026/04/20 22:43:32.07,IMU,-193.36,-169.43,-997.07,0.30,0.25,0.44,-2.10,2.55,-67.35,35.5
2026/04/20 22:43:32.17,IMU,-182.13,-161.62,-996.09,-1.42,0.24,-2.94,-2.25,1.65,-67.65,35.5
2026/04/20 22:43:32.28,IMU,-189.45,-167.97,-996.09,0.89,-1.60,0.89,-2.10,0.75,-66.00,35.3
2026/04/20 22:43:32.38,IMU,-184.57,-158.20,-996.58,-0.02,1.52,0.10,-3.00,1.65,-66.90,35.2
2026/04/20 22:43:32.48,IMU,-187.99,-167.97,-1007.32,1.28,-0.23,-0.92,-1.65,1.20,-67.95,35.4
2026/04/20 22:43:32.58,IMU,-186.52,-170.41,-999.51,-0.89,0.34,2.11,-2.85,0.30,-67.80,34.9
2026/04/20 22:43:32.68,IMU,-184.57,-156.25,-1003.42,0.87,-0.06,-2.18,-3.60,0.30,-68.55,35.4
2026/04/20 22:43:32.78,IMU,-180.18,-161.13,-1002.93,0.34,1.30,0.17,-2.70,1.95,-67.65,35.5
2026/04/20 22:43:32.88,IMU,-198.73,-161.13,-993.65,-0.85,-0.85,-2.04,-2.10,1.80,-67.35,35.4
2026/04/20 22:43:32.99,IMU,-199.71,-169.43,-1004.88,-1.50,0.02,0.77,-1.95,0.90,-66.45,35.2
2026/04/20 22:43:33.09,IMU,-191.41,-167.97,-1009.28,-0.33,0.63,-0.29,-3.75,1.20,-66.15,35.2
2026/04/20 22:43:33.19,IMU,-177.25,-175.29,-998.54,0.92,3.22,-0.31,-2.10,0.30,-68.55,35.2
2026/04/20 22:43:33.29,IMU,-190.92,-167.97,-1004.39,-0.19,0.53,-0.03,-1.80,1.05,-67.05,35.1
2026/04/20 22:43:33.39,IMU,-193.36,-166.99,-1000.00,1.15,-0.48,-1.57,-1.80,1.80,-66.75,34.9
2026/04/20 22:43:33.49,IMU,-189.94,-169.92,-985.84,-1.31,2.14,-1.24,-2.25,1.20,-67.20,35.4
2026/04/20 22:43:33.59,IMU,-197.27,-176.76,-999.02,0.36,0.36,-2.43,-1.20,1.95,-67.20,35.1
2026/04/20 22:43:33.69,IMU,-180.66,-166.99,-1000.98,1.54,-0.15,-2.27,-3.30,1.80,-68.55,35.1
2026/04/20 22:43:33.79,IMU,-172.85,-167.48,-999.51,1.81,-1.05,-1.18,-2.85,1.50,-66.75,35.2
2026/04/20 22:43:33.89,IMU,-178.71,-162.60,-1005.86,0.80,1.82,-1.17,-1.95,0.15,-66.15,35.2
2026/04/20 22:43:33.99,IMU,-191.41,-170.41,-1001.95,1.78,3.04,0.44,-2.10,2.25,-67.35,35.1
2026/04/20 22:43:34.10,IMU,-199.71,-162.60,-991.21,-0.95,-2.24,0.60,-3.75,1.20,-68.25,35.1
2026/04/20 22:43:34.20,IMU,-188.96,-161.13,-990.23,-2.40,0.79,1.96,-2.85,2.25,-67.35,35.2
2026/04/20 22:43:34.30,IMU,-184.57,-185.55,-993.16,0.63,0.95,1.18,-2.25,1.95,-67.65,35.6
2026/04/20 22:43:34.40,IMU,-179.69,-173.34,-1007.32,-1.05,1.35,-2.02,-2.85,2.25,-67.35,35.6
2026/04/20 22:43:34.50,IMU,-175.29,-166.99,-985.84,-1.92,-1.27,-2.18,-2.25,0.90,-67.95,35.2
2026/04/20 22:43:34.60,IMU,-200.20,-151.37,-993.16,-0.34,-1.84,0.92,-1.65,1.65,-67.20,35.6
2026/04/20 22:43:34.70,IMU,-189.94,-167.48,-993.16,-1.98,1.09,0.90,-2.70,0.90,-66.45,35.5
2026/04/20 22:43:34.80,IMU,-182.13,-166.50,-1007.81,-0.50,-0.89,-1.54,-1.95,1.20,-66.45,35.6
2026/04/20 22:43:34.90,IMU,-186.52,-163.09,-999.02,-0.89,3.07,-0.95,-2.55,1.05,-67.05,35.6
2026/04/20 22:43:35.00,IMU,-184.08,-172.36,-1004.88,-0.85,0.74,1.60,-3.00,1.95,-66.15,35.6
2026/04/20 22:43:35.10,IMU,-185.55,-169.92,-1001.46,1.91,1.69,-0.29,-2.10,0.30,-66.75,35.2
2026/04/20 22:43:35.20,IMU,-183.11,-171.39,-1003.91,0.80,-1.40,-2.24,-2.55,2.25,-67.35,35.5
2026/04/20 22:43:35.30,IMU,-200.68,-167.48,-998.05,-0.18,-1.29,-0.56,-2.85,1.50,-66.30,35.3
2026/04/20 22:43:35.40,IMU,-188.48,-173.83,-1004.88,-0.02,-0.15,-1.34,-2.10,1.80,-67.05,35.2
2026/04/20 22:43:35.51,IMU,-192.38,-159.67,-995.12,0.62,0.75,-0.74,-2.10,1.80,-66.30,35.6
2026/04/20 22:43:35.61,IMU,-184.08,-166.50,-1018.55,-0.37,-0.01,-1.04,-1.65,1.95,-67.95,35.5
2026/04/20 22:43:35.71,IMU,-175.29,-157.23,-992.68,1.15,-0.15,0.15,-2.25,1.20,-66.15,35.6
2026/04/20 22:43:35.81,IMU,-194.82,-161.13,-1001.46,-1.30,-0.18,-2.21,-2.85,0.00,-66.75,35.6
2026/04/20 22:43:35.91,IMU,-185.06,-161.13,-1000.49,-0.88,2.11,0.41,-3.30,1.50,-67.05,35.5
2026/04/20 22:43:36.01,IMU,-185.06,-161.13,-1012.70,0.95,-1.85,1.73,-3.45,0.90,-66.15,35.5
2026/04/20 22:43:36.11,IMU,-183.59,-166.99,-1006.84,-0.69,1.37,-0.75,-3.30,2.25,-66.75,35.6
2026/04/20 22:43:36.21,IMU,-200.20,-172.85,-1015.63,1.07,-2.06,1.44,-1.80,2.25,-67.05,35.6
2026/04/20 22:43:36.31,IMU,-180.18,-163.09,-1005.37,1.02,0.08,2.03,-3.30,2.25,-67.35,35.7
2026/04/20 22:43:36.41,IMU,-197.75,-157.23,-1015.14,-1.73,0.66,-2.66,-2.10,1.50,-67.05,35.6
2026/04/20 22:43:36.51,IMU,-203.13,-168.46,-1003.42,-1.03,1.78,0.82,-2.85,1.50,-66.75,35.2
2026/04/20 22:43:36.61,IMU,-185.55,-162.60,-996.09,-1.42,2.12,0.99,-2.85,1.05,-66.30,35.6
2026/04/20 22:43:36.71,IMU,-200.20,-165.04,-1001.95,1.00,-1.77,-1.26,-3.60,0.00,-66.30,35.6
2026/04/20 22:43:36.81,IMU,-190.43,-161.13,-1010.25,-0.96,1.61,-0.46,-2.55,1.80,-67.35,35.6
2026/04/20 22:43:36.91,IMU,-187.01,-167.48,-1002.93,-0.54,0.25,-1.78,-2.25,0.45,-67.65,35.6
2026/04/20 22:43:37.02,IMU,-176.76,-177.25,-1006.35,2.00,2.12,-1.22,-1.95,1.20,-66.90,35.7
2026/04/20 22:43:37.12,IMU,-195.31,-164.55,-994.14,0.76,1.59,1.79,-3.45,1.95,-67.95,35.4
2026/04/20 22:43:37.22,IMU,-188.96,-167.97,-1005.86,-0.11,-0.96,-1.17,-1.80,1.05,-67.35,35.6
2026/04/20 22:43:37.32,IMU,-187.50,-170.41,-998.05,-0.50,-1.44,1.98,-4.50,-1.95,-63.60,35.7
2026/04/20 22:43:37.42,IMU,-182.13,-164.55,-1001.46,1.40,-0.08,-2.09,-1.35,1.80,-65.55,35.7
2026/04/20 22:43:37.52,IMU,-187.01,-166.02,-1007.32,-0.15,0.40,-1.76,-2.25,0.90,-67.65,35.6
2026/04/20 22:43:37.62,IMU,-185.06,-166.99,-993.65,-0.05,1.37,-1.41,-3.45,1.65,-67.20,35.8
2026/04/20 22:43:37.72,IMU,-186.52,-161.62,-1012.21,-0.95,1.26,-0.82,-3.00,0.90,-66.15,35.9
2026/04/20 22:43:37.82,IMU,-196.78,-163.57,-1009.28,-0.62,-0.02,-1.20,-3.00,0.45,-66.90,35.6
2026/04/20 22:43:37.92,IMU,-188.48,-166.50,-995.61,0.76,0.20,-1.07,-0.90,1.65,-66.90,35.7
2026/04/20 22:43:38.02,IMU,-181.15,-162.60,-1004.88,1.96,-1.68,0.02,-2.70,3.15,-67.65,35.6
2026/04/20 22:43:38.12,IMU,-173.34,-170.90,-991.21,-0.69,0.75,-2.79,-3.00,0.45,-67.65,35.6
2026/04/20 22:43:38.22,IMU,-190.92,-164.06,-1005.37,1.36,0.62,2.10,-2.70,0.45,-66.15,35.5
2026/04/20 22:43:38.32,IMU,-187.99,-171.39,-998.05,1.40,0.23,0.06,-1.35,1.05,-67.05,35.6
2026/04/20 22:43:38.42,IMU,-184.57,-163.09,-993.65,-1.29,-0.52,-0.39,-1.95,1.65,-66.45,35.6
2026/04/20 22:43:38.53,IMU,-192.87,-170.41,-989.75,-0.81,1.44,-0.99,-3.00,1.20,-67.95,35.7
2026/04/20 22:43:38.63,IMU,-184.08,-164.06,-995.12,2.55,-0.02,-0.65,-2.55,0.30,-66.30,35.9
2026/04/20 22:43:38.73,IMU,-178.22,-158.69,-1010.74,0.81,-2.60,2.50,-1.35,1.50,-67.05,35.7
2026/04/20 22:43:38.83,IMU,-189.94,-168.46,-993.65,1.23,0.79,0.36,-1.35,0.75,-67.80,35.7
2026/04/20 22:43:38.93,IMU,-189.45,-173.83,-1002.93,-1.59,3.02,1.22,-2.25,1.20,-66.45,35.9
2026/04/20 22:43:39.03,IMU,-195.31,-173.83,-986.82,-0.05,1.08,0.58,-3.60,1.80,-67.80,35.6
2026/04/20 22:43:39.13,IMU,-181.15,-168.95,-1000.98,-0.05,0.33,-0.22,-3.30,2.25,-67.05,35.9
2026/04/20 22:43:39.23,IMU,-191.89,-171.88,-998.05,-0.26,-1.06,-0.03,-4.20,-0.15,-66.90,35.8
2026/04/20 22:43:39.33,IMU,-193.36,-176.76,-1007.32,-0.66,-1.13,3.04,-3.45,2.40,-65.40,35.8
2026/04/20 22:43:39.43,IMU,-177.73,-176.27,-1003.91,1.03,-0.56,-1.24,-3.60,0.75,-66.30,35.2
2026/04/20 22:43:39.53,IMU,-185.55,-177.73,-1010.74,-1.35,-1.79,2.13,-3.90,2.55,-65.55,35.7
2026/04/20 22:43:39.63,IMU,-187.01,-168.46,-1003.91,1.08,0.84,-1.48,-1.95,1.20,-66.15,35.8
2026/04/20 22:43:39.73,IMU,-205.57,-164.55,-1014.16,-0.55,1.17,-2.65,-1.20,0.45,-67.20,35.4
2026/04/20 22:43:39.83,IMU,-195.31,-162.11,-1010.74,0.11,1.59,0.73,-2.70,1.95,-66.15,35.8
2026/04/20 22:43:39.93,IMU,-193.85,-172.85,-1002.44,0.59,0.05,-0.96,-1.20,1.95,-66.45,35.6
2026/04/20 22:43:40.04,IMU,-195.80,-168.46,-993.16,0.82,1.46,1.03,-3.00,2.40,-67.95,35.6
2026/04/20 22:43:40.14,IMU,-187.99,-175.78,-1004.39,0.69,-0.60,0.33,-1.95,-0.15,-66.15,35.9
2026/04/20 22:43:40.24,IMU,-182.13,-153.81,-1003.91,2.23,-1.08,-1.11,-2.10,2.25,-67.35,35.8
2026/04/20 22:43:40.34,IMU,-193.85,-154.79,-999.51,-0.16,1.86,-2.33,-1.65,0.45,-67.20,35.9
2026/04/20 22:43:40.44,IMU,-188.96,-159.18,-995.12,1.56,0.80,2.98,-2.10,1.80,-68.10,35.9
2026/04/20 22:43:40.54,IMU,-181.64,-171.88,-1004.39,-0.62,-1.10,0.15,-1.95,1.65,-67.20,35.9
2026/04/20 22:43:40.64,IMU,-186.52,-167.48,-1012.21,0.39,2.56,0.96,-2.55,0.75,-67.05,36.1
2026/04/20 22:43:40.74,IMU,-193.85,-170.41,-1008.30,-1.17,-1.02,0.87,-2.70,2.70,-67.20,35.9
2026/04/20 22:43:40.84,IMU,-171.39,-156.25,-1006.84,-0.85,-0.74,-0.47,-2.10,1.05,-66.30,36.1
2026/04/20 22:43:40.96,IMU,-188.48,-172.36,-1007.81,-0.94,0.15,-0.48,-1.35,1.50,-66.75,35.9
2026/04/20 22:43:41.06,IMU,-193.85,-164.06,-997.56,-0.47,1.56,0.36,-2.25,1.65,-66.45,35.9
2026/04/20 22:43:41.16,IMU,-174.80,-174.32,-996.58,0.85,-0.64,-2.26,-2.25,1.20,-66.90,36.1
2026/04/20 22:43:41.26,IMU,-179.69,-166.02,-1020.02,0.84,-1.32,-0.85,-2.85,1.80,-66.00,35.8
2026/04/20 22:43:41.36,IMU,-194.82,-162.11,-1011.72,0.57,-0.15,0.02,-1.95,0.90,-66.90,35.4
2026/04/20 22:43:41.46,IMU,-171.39,-173.83,-1025.39,-0.39,0.15,0.98,-3.00,1.65,-66.90,35.8
2026/04/20 22:43:41.56,IMU,-182.62,-170.90,-1009.77,-0.07,0.85,-1.03,-3.30,1.50,-67.35,35.6
2026/04/20 22:43:41.66,IMU,-178.22,-163.09,-999.02,-0.36,1.01,-2.04,-2.85,1.80,-66.75,35.6
2026/04/20 22:43:41.76,IMU,-183.11,-171.39,-980.96,0.07,-1.72,0.10,-1.20,0.90,-66.45,35.7
2026/04/20 22:43:41.86,IMU,-185.55,-161.62,-1010.25,0.31,1.13,-3.05,-1.95,0.90,-66.90,35.7
2026/04/20 22:43:41.96,IMU,-195.31,-149.90,-1011.72,1.05,-1.34,2.22,-2.55,3.00,-65.55,35.5
2026/04/20 22:43:42.06,IMU,-179.20,-164.06,-1005.86,0.29,1.27,0.63,-2.70,1.20,-67.65,35.7
2026/04/20 22:43:42.16,IMU,-184.57,-170.41,-1004.88,-0.92,2.17,0.64,-3.45,1.95,-67.65,35.6
2026/04/20 22:43:42.26,IMU,-177.73,-171.88,-1019.04,0.56,-1.11,1.38,-2.85,2.55,-67.05,35.7
2026/04/20 22:43:42.36,IMU,-182.13,-171.39,-1007.32,0.21,-0.55,-1.32,-1.80,1.05,-68.10,35.4
2026/04/20 22:43:42.47,IMU,-198.24,-161.62,-1000.49,-0.56,-1.44,-1.97,-2.55,0.75,-67.05,35.3
2026/04/20 22:43:42.57,IMU,-184.57,-172.36,-1012.21,-1.13,1.24,0.76,-1.80,0.75,-66.30,35.2
2026/04/20 22:43:42.67,IMU,-193.36,-171.88,-1007.32,0.43,0.83,3.64,-2.55,1.80,-66.00,35.8
2026/04/20 22:43:42.77,IMU,-191.41,-159.67,-1001.46,-0.01,0.54,2.03,-2.70,2.40,-67.20,35.7
2026/04/20 22:43:42.87,IMU,-195.80,-148.93,-986.82,-0.24,-1.53,0.80,-1.65,0.45,-66.90,35.3
2026/04/20 22:43:42.97,IMU,-190.92,-164.55,-1000.98,-1.56,-0.41,-1.27,-1.95,0.90,-66.15,35.6
2026/04/20 22:43:43.07,IMU,-182.62,-160.64,-1014.65,0.61,-0.85,0.87,-1.65,0.15,-66.45,35.6
2026/04/20 22:43:43.17,IMU,-197.27,-180.18,-999.02,-0.72,0.40,-1.08,-3.00,0.15,-65.10,35.8
2026/04/20 22:43:43.27,IMU,-183.59,-161.13,-1007.81,0.18,-1.84,1.02,-1.95,2.40,-66.90,35.8
2026/04/20 22:43:43.37,IMU,-179.69,-187.99,-993.65,1.77,-1.20,-1.63,-3.30,1.80,-67.05,35.7
2026/04/20 22:43:43.47,IMU,-172.36,-187.50,-982.91,1.08,-0.37,1.37,-5.40,-0.30,-65.25,35.7
2026/04/20 22:43:43.57,IMU,-187.50,-173.34,-998.54,1.78,0.61,-0.97,-2.25,0.45,-66.45,35.7
2026/04/20 22:43:43.67,IMU,-189.94,-168.95,-1010.74,-0.56,-1.24,1.54,-2.70,0.90,-66.90,35.9
2026/04/20 22:43:43.78,IMU,-186.04,-167.97,-1012.70,-0.31,0.79,-0.35,-2.55,0.75,-67.80,35.9
2026/04/20 22:43:43.87,IMU,-179.69,-173.34,-1001.46,-0.15,1.31,-0.42,-2.55,1.80,-67.80,35.9
2026/04/20 22:43:43.98,IMU,-174.32,-171.39,-1014.65,0.71,0.56,-1.53,-2.25,0.15,-66.45,35.9
2026/04/20 22:43:44.08,IMU,-186.52,-165.04,-1013.18,-1.49,-0.54,-0.58,-3.30,1.50,-67.35,35.9
2026/04/20 22:43:44.18,IMU,-172.85,-163.57,-994.63,-1.41,-1.32,2.11,-1.80,3.30,-67.05,35.6
2026/04/20 22:43:44.28,IMU,-166.50,-164.55,-1002.93,0.60,0.66,0.21,-1.95,1.20,-67.65,35.8
2026/04/20 22:43:44.38,IMU,-202.15,-169.92,-1019.04,0.90,-0.65,-1.85,-1.95,1.95,-66.90,35.7
2026/04/20 22:43:44.48,IMU,-187.99,-157.23,-1024.41,0.08,-0.15,0.19,-5.25,0.15,-62.85,35.6
2026/04/20 22:43:44.58,IMU,-193.36,-169.43,-1005.37,-0.30,-0.06,0.81,-2.25,0.15,-66.90,35.7
2026/04/20 22:43:44.68,IMU,-192.38,-166.50,-1008.79,1.02,0.61,2.30,-2.55,3.30,-67.05,35.4
2026/04/20 22:43:44.78,IMU,-186.04,-169.92,-1009.28,-0.23,0.15,-0.38,-2.55,0.30,-65.55,35.8
2026/04/20 22:43:44.88,IMU,-186.52,-176.76,-1003.42,0.02,1.30,-0.80,-2.70,1.65,-68.70,35.9
2026/04/20 22:43:44.98,IMU,-195.80,-165.04,-1005.86,-0.51,0.44,0.81,-2.10,0.00,-67.05,35.7
2026/04/20 22:43:45.08,IMU,-177.25,-166.02,-1005.86,0.27,0.44,0.40,-1.65,0.90,-65.10,35.7
2026/04/20 22:43:45.18,IMU,-177.25,-170.90,-1001.46,1.36,-1.39,0.93,-2.70,0.15,-66.45,35.7
2026/04/20 22:43:45.28,IMU,-192.38,-158.69,-1013.67,0.28,0.16,1.95,-1.35,1.80,-67.05,35.8
2026/04/20 22:43:45.39,IMU,-188.96,-159.18,-993.65,0.28,0.66,0.34,-2.70,1.65,-65.40,35.7
2026/04/20 22:43:45.50,IMU,-165.04,-170.41,-1000.49,0.47,2.53,1.12,-6.75,-1.20,-62.55,35.7
2026/04/20 22:43:45.60,IMU,-198.24,-161.62,-1003.91,0.47,-0.84,-1.11,-3.45,0.45,-67.20,35.8
2026/04/20 22:43:45.70,IMU,-190.43,-163.09,-1003.42,-1.58,0.69,-0.37,-3.45,0.90,-66.90,35.6
2026/04/20 22:43:45.80,IMU,-186.52,-166.02,-1004.39,-1.01,0.78,-2.84,-2.70,1.95,-66.90,35.9
2026/04/20 22:43:45.90,IMU,-184.08,-170.90,-996.58,-0.46,0.26,1.27,-2.55,2.25,-66.00,36.0
2026/04/20 22:43:46.00,IMU,-197.27,-152.83,-1007.32,-0.99,0.68,0.37,-1.80,2.25,-66.30,35.9
2026/04/20 22:43:46.10,IMU,-192.38,-161.62,-1001.46,1.97,1.65,-0.58,-3.45,1.65,-67.65,35.9
2026/04/20 22:43:46.20,IMU,-187.99,-166.50,-1000.00,1.52,-1.00,1.24,-2.85,1.80,-66.75,35.9
2026/04/20 22:43:46.30,IMU,-189.45,-173.83,-1009.77,1.62,0.92,1.78,-2.85,2.55,-66.30,35.7
2026/04/20 22:43:46.40,IMU,-187.01,-154.30,-997.07,-0.23,2.57,0.17,-2.55,1.80,-67.80,35.9
2026/04/20 22:43:46.51,IMU,-190.92,-177.25,-1005.37,-1.34,2.21,-0.49,-3.00,1.20,-68.70,35.8
2026/04/20 22:43:46.61,IMU,-187.50,-163.57,-996.58,-0.71,-0.46,0.21,-3.75,1.95,-65.85,35.7
2026/04/20 22:43:46.71,IMU,-200.20,-178.71,-997.07,-1.69,-0.45,-0.85,-2.70,1.65,-67.20,35.6
2026/04/20 22:43:46.81,IMU,-194.34,-166.02,-1011.72,-0.08,0.76,-1.36,-2.10,2.55,-66.30,35.9
2026/04/20 22:43:46.91,IMU,-189.94,-164.55,-1008.79,1.12,-1.11,-1.18,-2.10,0.75,-66.00,35.9
2026/04/20 22:43:47.01,IMU,-186.52,-167.97,-995.12,0.22,0.28,0.37,-3.00,1.65,-65.85,35.8
2026/04/20 22:43:47.11,IMU,-191.41,-159.67,-1008.79,-0.20,1.40,2.51,-3.00,1.65,-66.90,36.0
2026/04/20 22:43:47.21,IMU,-191.41,-185.55,-1008.79,-1.00,0.60,-0.88,-4.35,1.50,-67.35,35.9
2026/04/20 22:43:47.31,IMU,-192.87,-167.97,-994.14,0.70,-0.10,-0.95,-3.60,2.25,-67.05,36.0
2026/04/20 22:43:47.41,IMU,-172.36,-154.79,-990.72,0.79,0.92,-2.60,-2.25,1.20,-65.85,35.8
2026/04/20 22:43:47.51,IMU,-197.27,-160.16,-1001.46,-0.60,0.72,-0.54,-0.90,0.90,-66.45,35.9
2026/04/20 22:43:47.61,IMU,-180.66,-170.90,-1007.81,0.36,-2.99,1.21,-2.10,1.05,-66.75,36.2
2026/04/20 22:43:47.71,IMU,-191.89,-182.62,-1001.46,0.73,1.28,0.60,-1.80,2.25,-67.05,36.1
2026/04/20 22:43:47.81,IMU,-179.69,-157.71,-1000.00,-0.27,0.50,-1.82,-2.25,-0.90,-66.90,36.0
2026/04/20 22:43:47.91,IMU,-206.05,-157.23,-1000.00,-1.31,-0.47,-0.39,-1.80,3.00,-66.00,36.2
2026/04/20 22:43:48.02,IMU,-178.22,-151.86,-994.14,0.53,0.52,-0.50,-3.90,3.00,-66.00,36.0
2026/04/20 22:43:48.12,IMU,-181.15,-161.62,-1004.88,-1.20,-0.15,-0.88,-2.55,2.25,-67.05,36.0
2026/04/20 22:43:48.22,IMU,-195.31,-165.04,-995.12,-1.49,0.63,-2.53,-1.80,0.00,-65.55,35.9
2026/04/20 22:43:48.32,IMU,-187.99,-164.55,-989.75,0.12,1.66,-0.23,-2.25,3.15,-67.95,35.9
2026/04/20 22:43:48.42,IMU,-196.78,-169.92,-1006.35,-2.24,1.79,-1.15,-2.10,1.05,-67.05,36.2
2026/04/20 22:43:48.52,IMU,-173.83,-166.02,-989.75,-1.76,-0.12,1.30,-3.00,1.65,-66.15,35.9
2026/04/20 22:43:48.62,IMU,-182.62,-160.16,-1001.46,1.02,2.22,-1.44,-3.45,0.45,-66.90,36.3
2026/04/20 22:43:48.72,IMU,-188.48,-175.29,-1002.44,0.57,2.15,-2.26,-4.20,2.40,-67.20,36.1
2026/04/20 22:43:48.82,IMU,-184.57,-173.83,-1003.91,0.14,2.62,0.32,-1.95,0.45,-65.85,36.1
2026/04/20 22:43:48.92,IMU,-186.04,-161.62,-997.56,1.22,-0.84,2.63,-3.45,-0.15,-67.65,36.2
2026/04/20 22:43:49.02,IMU,-181.15,-154.79,-1001.46,0.16,-1.73,-1.34,-1.20,0.90,-65.85,36.1
2026/04/20 22:43:49.12,IMU,-186.04,-166.50,-996.58,0.71,1.27,-3.95,-1.80,0.75,-66.75,36.2
2026/04/20 22:43:49.22,IMU,-194.82,-164.55,-999.51,1.44,1.54,0.07,-3.30,2.25,-67.05,36.2
2026/04/20 22:43:49.32,IMU,-192.87,-159.18,-1007.32,-0.01,-0.76,-0.40,-2.55,1.50,-67.05,35.9
2026/04/20 22:43:49.42,IMU,-191.89,-166.99,-995.12,-1.69,3.11,2.14,-1.20,3.15,-66.90,36.2
2026/04/20 22:43:49.53,IMU,-195.31,-154.30,-991.21,0.39,-1.34,0.07,-2.55,2.25,-66.30,35.9
2026/04/20 22:43:49.63,IMU,-187.99,-171.39,-999.02,1.67,0.76,-0.38,-3.00,1.65,-67.65,36.2
2026/04/20 22:43:49.73,IMU,-186.04,-170.41,-996.09,-0.92,2.02,0.12,-2.55,-0.75,-66.00,36.0
2026/04/20 22:43:49.83,IMU,-195.31,-147.46,-990.23,0.42,1.02,-0.64,-2.55,1.05,-66.30,36.1
2026/04/20 22:43:49.93,IMU,-184.57,-178.22,-996.58,1.57,0.90,-0.89,-0.90,1.95,-67.95,36.2
2026/04/20 22:43:50.03,IMU,-196.29,-164.55,-1005.37,-0.55,-0.51,1.44,-1.95,1.20,-67.20,36.3
2026/04/20 22:43:50.13,IMU,-187.99,-155.27,-984.38,0.29,0.74,0.82,-2.70,2.70,-66.90,36.0
2026/04/20 22:43:50.23,IMU,-182.62,-163.09,-1001.46,-0.42,-1.66,1.59,-2.10,0.75,-66.75,36.0
2026/04/20 22:43:50.33,IMU,-187.99,-164.06,-998.05,-0.96,-0.61,0.48,-3.30,0.30,-67.05,36.1
2026/04/20 22:43:50.43,IMU,-194.34,-171.39,-1000.49,-0.53,-1.43,0.64,-4.50,0.90,-65.85,35.9
2026/04/20 22:43:50.53,IMU,-173.83,-179.20,-999.51,0.08,0.39,-0.77,-3.45,0.45,-66.45,36.1
2026/04/20 22:43:50.63,IMU,-185.06,-168.46,-999.51,-1.21,-0.03,0.79,-1.95,1.20,-66.90,36.1
2026/04/20 22:43:50.73,IMU,-187.01,-170.90,-987.79,-0.12,1.13,-0.24,-2.10,0.75,-66.75,36.1
2026/04/20 22:43:50.83,IMU,-192.38,-174.80,-1001.46,1.06,-1.54,-1.15,-1.65,1.95,-66.45,36.0
2026/04/20 22:43:50.94,IMU,-183.59,-166.02,-1013.18,0.59,0.24,0.85,-2.25,1.95,-66.45,36.0
2026/04/20 22:43:51.04,IMU,-199.71,-170.90,-998.54,1.27,2.28,-1.00,-3.00,1.95,-66.15,36.1
2026/04/20 22:43:51.14,IMU,-183.59,-172.36,-993.16,1.08,-1.22,0.42,-2.55,0.75,-66.30,35.9
2026/04/20 22:43:51.24,IMU,-200.20,-164.55,-997.56,0.50,-0.66,-0.18,-2.70,1.65,-66.90,36.2
2026/04/20 22:43:51.34,IMU,-186.52,-161.62,-1000.49,-1.25,1.44,2.57,-1.35,1.80,-66.00,36.0
2026/04/20 22:43:51.44,IMU,-191.41,-162.60,-1001.46,-1.04,0.65,1.02,-3.60,1.80,-65.55,36.1
2026/04/20 22:43:51.54,IMU,-191.41,-176.27,-990.23,0.33,1.62,-0.18,-3.00,0.90,-67.20,35.9
2026/04/20 22:43:51.64,IMU,-203.61,-161.13,-990.23,2.30,1.86,0.25,-5.70,-0.90,-61.50,35.9
2026/04/20 22:43:51.74,IMU,-199.71,-168.95,-1006.84,-0.79,2.05,0.18,-1.80,2.25,-66.00,35.9
2026/04/20 22:43:51.84,IMU,-196.29,-164.06,-1008.30,-0.51,-1.63,1.90,-1.20,0.90,-66.45,36.1
2026/04/20 22:43:51.94,IMU,-188.48,-167.97,-1006.35,-1.02,3.35,0.05,-2.25,1.65,-65.40,35.9
2026/04/20 22:43:52.04,IMU,-188.48,-167.48,-1000.00,-0.62,0.50,-0.47,-4.20,-0.15,-65.85,35.7
2026/04/20 22:43:52.14,IMU,-188.48,-169.43,-1004.88,-0.40,-0.27,-1.47,-1.35,1.05,-66.30,36.2
2026/04/20 22:43:52.24,IMU,-198.73,-175.29,-999.51,-0.37,0.85,-0.47,-2.70,1.65,-66.15,35.9
2026/04/20 22:43:52.35,IMU,-192.38,-179.20,-1009.77,-1.37,1.38,0.85,-2.25,0.45,-66.15,36.1
2026/04/20 22:43:52.45,IMU,-188.48,-170.90,-997.07,0.19,1.45,-0.79,-3.00,1.95,-66.90,36.1
2026/04/20 22:43:52.55,IMU,-188.48,-172.36,-986.82,-0.07,1.37,1.27,-3.60,1.05,-67.05,36.2
2026/04/20 22:43:52.66,IMU,-198.24,-166.99,-999.51,0.60,-2.64,0.47,-6.60,0.00,-63.15,35.9
2026/04/20 22:43:52.76,IMU,-194.34,-170.90,-994.63,-0.54,-0.29,0.51,-0.90,1.65,-66.15,36.0
2026/04/20 22:43:52.86,IMU,-179.69,-185.55,-998.54,0.84,0.66,-2.64,-3.45,1.65,-65.40,36.4
2026/04/20 22:43:52.96,IMU,-190.92,-160.16,-988.77,0.20,1.56,-0.33,-1.80,1.05,-65.55,36.1
2026/04/20 22:43:53.06,IMU,-180.18,-175.29,-996.58,0.25,0.60,1.78,-1.65,1.65,-66.45,35.8
2026/04/20 22:43:53.16,IMU,-189.45,-169.92,-984.38,-0.41,-0.50,-0.34,-1.20,1.65,-65.85,36.0
2026/04/20 22:43:53.26,IMU,-190.43,-169.43,-1001.46,0.20,0.34,0.79,-3.45,0.90,-66.90,36.1
2026/04/20 22:43:53.36,IMU,-190.92,-164.06,-1004.39,0.21,0.37,-1.64,-2.55,2.25,-66.75,36.1
2026/04/20 22:43:53.46,IMU,-173.83,-156.25,-990.23,-0.29,-0.98,-2.63,-3.45,0.45,-66.45,36.1
2026/04/20 22:43:53.57,IMU,-179.20,-164.06,-1002.93,0.95,-1.54,2.51,-2.70,-0.15,-67.95,36.3
2026/04/20 22:43:53.67,IMU,-187.50,-163.57,-994.14,-0.51,1.35,2.18,-1.95,0.45,-66.15,36.0
2026/04/20 22:43:53.77,IMU,-186.04,-172.85,-1001.46,-1.65,0.25,-1.40,-2.25,1.95,-67.95,36.1
2026/04/20 22:43:53.87,IMU,-190.92,-163.57,-1000.98,0.01,1.07,-1.15,-2.25,0.45,-67.95,36.1
2026/04/20 22:43:53.97,IMU,-201.66,-168.46,-991.21,0.11,0.15,-1.59,-2.55,1.05,-66.75,36.1
2026/04/20 22:43:54.07,IMU,-187.99,-164.06,-1011.23,0.46,-0.53,1.92,-2.70,0.45,-66.45,36.1
2026/04/20 22:43:54.17,IMU,-195.80,-181.64,-999.51,2.34,1.70,1.60,-3.75,1.65,-66.90,36.1
2026/04/20 22:43:54.27,IMU,-185.55,-166.02,-993.16,-0.89,-0.53,0.41,-3.30,1.80,-67.05,35.9
2026/04/20 22:43:54.37,IMU,-197.27,-155.76,-1011.72,1.21,0.74,-0.27,-3.00,1.65,-66.90,36.0
2026/04/20 22:43:54.47,IMU,-189.94,-160.64,-999.51,-1.09,0.11,1.58,-3.45,3.15,-66.15,36.3
2026/04/20 22:43:54.57,IMU,-201.17,-166.50,-996.09,-1.02,1.68,2.10,-2.10,1.50,-66.75,36.3
2026/04/20 22:43:54.67,IMU,-181.15,-179.20,-994.63,-1.75,-0.58,0.82,-3.00,2.40,-66.90,36.3
2026/04/20 22:43:54.77,IMU,-186.04,-166.02,-1002.44,-0.11,0.39,-0.49,-3.00,0.45,-67.20,36.1
2026/04/20 22:43:54.88,IMU,-186.52,-171.39,-986.33,0.46,-1.24,0.66,-2.25,0.90,-67.65,36.2
2026/04/20 22:43:54.98,IMU,-183.11,-166.50,-990.23,-0.76,0.45,-0.63,-2.55,3.00,-66.30,35.8
2026/04/20 22:43:55.08,IMU,-195.80,-157.23,-1008.30,0.16,-0.05,-2.57,-2.55,0.30,-66.00,36.3
2026/04/20 22:43:55.18,IMU,-195.80,-186.52,-1003.42,0.93,0.50,-3.16,-0.60,0.30,-67.80,36.0
2026/04/20 22:43:55.28,IMU,-183.11,-170.41,-982.42,-0.58,0.03,0.51,-2.55,0.30,-67.05,35.9
2026/04/20 22:43:55.38,IMU,-190.92,-174.32,-1008.79,-0.72,-0.42,0.47,-2.55,3.30,-68.10,35.8
2026/04/20 22:43:55.48,IMU,-185.06,-167.48,-1004.88,-0.27,0.71,0.39,-2.55,0.75,-67.05,35.8
2026/04/20 22:43:55.58,IMU,-188.96,-175.29,-1010.25,-0.95,0.11,-3.56,-3.00,0.45,-66.45,36.0
2026/04/20 22:43:55.68,IMU,-183.59,-168.46,-997.56,0.37,0.33,0.39,-3.90,1.05,-68.10,36.1
2026/04/20 22:43:55.78,IMU,-196.29,-161.62,-990.23,1.34,1.45,1.33,-1.80,2.25,-66.75,35.9
2026/04/20 22:43:55.88,IMU,-191.41,-165.53,-988.77,-1.04,0.34,-2.40,-2.10,2.55,-67.05,36.0
2026/04/20 22:43:55.98,IMU,-187.01,-166.99,-1012.70,1.15,2.96,0.92,-1.95,1.65,-67.65,36.1
2026/04/20 22:43:56.10,IMU,-184.08,-164.55,-1006.84,-0.04,-1.37,1.05,-3.45,0.90,-66.45,35.9
2026/04/20 22:43:56.20,IMU,-192.87,-169.43,-991.70,0.19,-1.60,-0.64,-2.25,1.65,-65.40,35.9
2026/04/20 22:43:56.30,IMU,-187.99,-159.67,-1002.93,-1.13,-0.60,-0.86,-1.65,-0.15,-66.15,36.0
2026/04/20 22:43:56.40,IMU,-197.27,-158.20,-993.65,0.30,0.02,-0.72,-2.70,0.90,-66.90,35.9
2026/04/20 22:43:56.50,IMU,-190.92,-159.67,-994.63,-1.08,1.16,-0.94,-2.70,2.40,-67.20,35.9
2026/04/20 22:43:56.60,IMU,-203.61,-162.60,-1002.93,-0.26,0.92,3.39,-1.95,1.65,-67.20,35.7
2026/04/20 22:43:56.70,IMU,-174.80,-159.67,-1000.98,-1.05,0.79,4.15,-3.60,1.05,-67.80,36.1
2026/04/20 22:43:56.80,IMU,-200.20,-160.64,-981.93,-1.08,-0.87,-0.72,-2.25,3.15,-66.45,36.1
2026/04/20 22:43:56.90,IMU,-196.78,-159.67,-1000.00,-2.09,0.27,0.31,-5.85,-0.75,-63.15,36.2
2026/04/20 22:43:57.00,IMU,-181.15,-163.09,-994.14,0.44,0.98,0.92,-2.85,2.25,-66.75,36.3
2026/04/20 22:43:57.10,IMU,-199.71,-177.25,-989.75,-0.42,-1.34,-1.12,-2.55,2.25,-67.05,36.1
2026/04/20 22:43:57.21,IMU,-204.59,-166.50,-995.61,-1.12,-1.39,0.02,-1.65,1.65,-67.65,36.2
2026/04/20 22:43:57.31,IMU,-194.82,-151.86,-1000.98,-0.32,2.63,1.24,-1.95,0.90,-68.70,36.0
2026/04/20 22:43:57.41,IMU,-193.36,-160.16,-995.12,1.32,0.70,1.07,-2.70,1.65,-66.15,36.1
2026/04/20 22:43:57.51,IMU,-182.62,-170.41,-995.12,-0.60,-2.66,1.63,-1.20,0.45,-67.20,36.1
2026/04/20 22:43:57.61,IMU,-197.27,-156.25,-994.63,-0.54,0.11,-1.78,-1.80,1.50,-67.05,35.6
2026/04/20 22:43:57.71,IMU,-188.48,-169.43,-999.51,-0.64,2.64,1.40,-2.55,0.75,-66.00,35.9
2026/04/20 22:43:57.81,IMU,-192.87,-163.57,-993.65,0.55,2.92,1.66,-2.10,0.30,-65.55,36.1
2026/04/20 22:43:57.91,IMU,-189.45,-169.43,-1000.98,0.54,-1.21,-1.53,-1.80,1.80,-65.25,36.1
2026/04/20 22:43:58.01,IMU,-179.69,-181.15,-993.16,3.13,1.53,-1.29,-2.55,0.75,-66.00,36.3
2026/04/20 22:43:58.11,IMU,-190.43,-174.80,-1000.98,0.06,-0.89,-1.05,-3.30,1.50,-66.30,36.2
2026/04/20 22:43:58.21,IMU,-189.45,-168.46,-1000.00,0.06,2.84,-2.26,-2.25,1.65,-65.85,36.1
2026/04/20 22:43:58.31,IMU,-189.45,-159.67,-1002.93,-0.19,-1.24,1.83,-3.60,1.05,-67.35,35.9
2026/04/20 22:43:58.41,IMU,-177.25,-169.43,-994.14,0.11,-1.00,2.71,-3.30,1.80,-66.00,36.2
2026/04/20 22:43:58.51,IMU,-176.27,-173.83,-999.51,-1.38,0.99,-1.02,-1.80,1.50,-66.75,35.9
2026/04/20 22:43:58.62,IMU,-183.59,-168.95,-997.07,0.47,-1.69,-0.66,-1.95,1.95,-67.20,36.1
2026/04/20 22:43:58.72,IMU,-194.34,-169.92,-992.68,-0.28,1.24,0.03,-2.70,0.45,-66.90,36.2
2026/04/20 22:43:58.82,IMU,-185.55,-164.06,-998.54,1.16,-0.26,0.27,-3.45,2.40,-66.45,36.3
2026/04/20 22:43:58.92,IMU,-201.66,-170.90,-1008.30,-0.24,0.55,1.46,-2.55,1.80,-67.80,36.2
2026/04/20 22:43:59.02,IMU,-178.22,-166.99,-989.75,-0.52,2.95,1.37,-1.65,0.90,-66.15,36.1
2026/04/20 22:43:59.12,IMU,-192.87,-158.20,-1000.49,-1.45,-0.23,0.44,-2.25,1.65,-66.45,36.2
2026/04/20 22:43:59.22,IMU,-180.18,-163.57,-994.63,-0.81,1.37,-0.15,-2.70,1.20,-67.65,36.2
2026/04/20 22:43:59.32,IMU,-178.71,-166.99,-997.56,-2.44,-0.10,0.79,-2.25,0.45,-67.20,36.1
2026/04/20 22:43:59.42,IMU,-189.45,-167.48,-989.26,0.68,-0.34,-0.04,-2.85,0.00,-66.30,35.9
2026/04/20 22:43:59.52,IMU,-184.08,-162.11,-996.58,0.34,-1.00,-0.73,-2.10,1.05,-67.80,36.2
2026/04/20 22:43:59.62,IMU,-191.89,-182.62,-1013.18,0.11,0.16,0.11,-1.95,1.20,-65.85,36.1
2026/04/20 22:43:59.72,IMU,-196.29,-166.02,-997.07,0.17,2.00,-2.89,-4.20,0.90,-65.40,36.1
2026/04/20 22:43:59.82,IMU,-200.68,-181.64,-992.19,1.25,0.92,2.37,-6.60,-1.50,-61.95,36.0
2026/04/20 22:43:59.92,IMU,-182.62,-178.22,-1004.88,-1.10,0.05,-0.11,-2.70,1.65,-66.15,36.3
2026/04/20 22:44:00.03,IMU,-195.31,-164.55,-992.68,0.05,-0.40,1.02,-3.00,0.90,-66.15,36.4
2026/04/20 22:44:00.13,IMU,-183.59,-153.32,-1004.39,1.66,-0.17,-2.12,-1.65,2.70,-66.45,36.2
2026/04/20 22:44:00.23,IMU,-199.22,-164.55,-1000.98,1.44,0.43,0.21,-1.65,1.20,-68.25,35.9
2026/04/20 22:44:00.33,IMU,-186.04,-168.95,-1005.86,0.34,0.84,-0.26,-3.90,1.05,-67.35,35.9
2026/04/20 22:44:00.43,IMU,-188.96,-167.97,-999.51,1.12,1.22,-0.52,-1.35,1.05,-66.75,36.1
2026/04/20 22:44:00.53,IMU,-179.69,-168.95,-986.33,1.21,-2.01,-0.53,-1.95,1.65,-66.45,36.1
2026/04/20 22:44:00.63,IMU,-201.66,-173.83,-1005.86,-0.77,-1.67,-1.28,-2.70,1.65,-66.15,36.3
2026/04/20 22:44:00.73,IMU,-192.87,-163.09,-995.12,0.46,0.86,-0.08,-2.70,1.65,-66.90,36.2
2026/04/20 22:44:00.84,IMU,-184.57,-160.64,-982.91,-0.37,0.44,0.68,-4.50,0.45,-61.80,36.1
2026/04/20 22:44:00.94,IMU,-188.96,-170.90,-1007.32,0.21,0.85,-1.27,-0.90,0.15,-65.85,36.1
2026/04/20 22:44:01.05,IMU,-210.94,-156.25,-1007.81,-0.07,-0.11,0.76,-2.55,1.50,-66.75,36.0
2026/04/20 22:44:01.15,IMU,-184.08,-175.29,-1005.37,-0.95,0.78,-0.63,-4.20,1.20,-65.40,36.2
2026/04/20 22:44:01.25,IMU,-196.29,-159.67,-993.16,0.90,-0.42,-0.30,-1.65,1.95,-67.65,36.0
2026/04/20 22:44:01.35,IMU,-187.01,-165.04,-1000.49,-0.82,0.24,-0.08,-1.95,1.20,-66.45,35.9
2026/04/20 22:44:01.45,IMU,-186.52,-157.71,-997.07,-1.70,0.74,-1.26,-1.35,0.00,-66.30,36.1
2026/04/20 22:44:01.55,IMU,-185.06,-168.95,-1000.49,0.50,-0.65,0.79,-1.35,1.80,-66.75,36.0
2026/04/20 22:44:01.65,IMU,-184.57,-173.83,-995.61,0.43,0.70,0.65,-3.90,1.80,-65.55,36.2
2026/04/20 22:44:01.75,IMU,-186.52,-168.95,-1003.42,1.64,0.74,0.77,-1.80,1.05,-65.25,36.1
2026/04/20 22:44:01.85,IMU,-181.64,-156.25,-995.61,-1.23,0.15,2.33,-2.55,1.05,-67.35,36.2
2026/04/20 22:44:01.95,IMU,-200.20,-175.78,-986.82,-1.33,-0.77,0.09,-2.85,1.50,-67.05,35.9
2026/04/20 22:44:02.05,IMU,-186.04,-158.20,-987.79,-1.47,-1.49,-0.60,-1.35,0.75,-67.05,36.0
2026/04/20 22:44:02.15,IMU,-194.82,-172.36,-1001.95,-0.95,-0.73,0.60,-3.30,0.75,-66.75,36.0
2026/04/20 22:44:02.25,IMU,-205.57,-171.88,-990.23,-0.46,0.47,1.82,-2.85,0.75,-67.05,36.3
2026/04/20 22:44:02.35,IMU,-181.64,-153.81,-999.02,0.39,0.27,-0.49,-1.05,1.05,-66.00,35.9
2026/04/20 22:44:02.46,IMU,-187.01,-170.41,-1001.46,-0.22,-2.04,0.28,-1.80,2.25,-67.35,36.2
2026/04/20 22:44:02.56,IMU,-186.04,-169.43,-996.58,-0.93,-1.31,0.73,-3.30,2.25,-67.05,36.3
2026/04/20 22:44:02.66,IMU,-208.50,-164.55,-990.23,2.45,-0.03,1.11,-2.85,2.55,-67.05,36.3
2026/04/20 22:44:02.76,IMU,-174.32,-166.50,-995.12,0.08,-0.47,0.83,-2.55,0.75,-66.30,36.2
2026/04/20 22:44:02.86,IMU,-203.13,-175.29,-997.07,0.92,0.50,2.17,-3.30,1.50,-66.75,36.0
2026/04/20 22:44:02.96,IMU,-195.80,-173.34,-991.70,2.80,-0.60,0.49,-1.65,1.20,-66.45,36.3
2026/04/20 22:44:03.06,IMU,-188.96,-160.64,-975.59,0.33,0.72,0.28,-4.65,-1.50,-61.95,36.3
2026/04/20 22:44:03.16,IMU,-190.92,-160.64,-1004.88,-1.35,-1.06,0.68,-2.70,1.65,-66.45,36.1
2026/04/20 22:44:03.26,IMU,-196.78,-162.60,-999.02,-0.93,3.18,1.63,-2.25,2.40,-65.10,36.0
2026/04/20 22:44:03.36,IMU,-179.69,-156.25,-1001.46,-0.57,0.14,0.17,-2.70,1.95,-66.90,36.2
2026/04/20 22:44:03.46,IMU,-190.43,-160.64,-993.65,-1.27,1.16,0.59,-2.70,1.95,-65.85,36.2
2026/04/20 22:44:03.56,IMU,-182.62,-156.74,-979.49,0.79,1.16,-2.50,-1.35,1.80,-66.75,36.2
2026/04/20 22:44:03.66,IMU,-194.82,-169.43,-989.26,1.66,-0.42,-0.30,-2.85,1.80,-68.55,36.3
2026/04/20 22:44:03.76,IMU,-187.50,-158.20,-986.82,-0.69,1.42,0.43,-1.20,1.65,-67.20,36.2
2026/04/20 22:44:03.87,IMU,-199.71,-159.18,-988.77,1.32,-0.69,1.25,-3.60,2.55,-66.30,36.2
2026/04/20 22:44:03.97,IMU,-182.13,-159.18,-1005.37,1.34,-0.90,-0.54,-3.60,1.05,-67.35,36.2
2026/04/20 22:44:04.07,IMU,-187.99,-175.78,-1000.49,2.11,3.95,0.59,-2.55,0.30,-66.30,36.1
2026/04/20 22:44:04.17,IMU,-178.71,-163.57,-997.56,0.72,0.73,1.02,-3.90,1.50,-67.35,36.2
2026/04/20 22:44:04.27,IMU,-195.31,-168.46,-998.05,1.16,0.60,-0.80,-2.70,0.45,-67.20,36.0
2026/04/20 22:44:04.37,IMU,-188.48,-171.39,-1004.39,0.15,0.91,2.53,-1.80,0.75,-66.75,36.2
2026/04/20 22:44:04.47,IMU,-187.99,-167.97,-988.77,1.08,-1.63,0.16,-1.80,1.05,-65.55,36.2
2026/04/20 22:44:04.57,IMU,-182.13,-164.55,-993.16,0.83,0.67,-0.83,-2.55,1.05,-68.10,36.1
2026/04/20 22:44:04.67,IMU,-202.15,-178.71,-1000.49,-0.45,0.05,0.13,-1.80,0.75,-67.35,36.4
2026/04/20 22:44:04.77,IMU,-185.06,-177.25,-992.19,0.58,-0.11,-1.43,-2.70,1.20,-67.65,35.9
2026/04/20 22:44:04.87,IMU,-201.66,-174.32,-1001.46,1.24,1.43,2.03,-2.25,0.90,-66.90,36.1
2026/04/20 22:44:04.97,IMU,-183.11,-165.04,-1000.49,0.89,-2.38,0.44,-3.75,2.70,-67.65,36.0
2026/04/20 22:44:05.09,IMU,-193.85,-156.74,-998.05,1.20,1.66,-0.09,-2.10,1.50,-66.00,36.0
2026/04/20 22:44:05.19,IMU,-186.04,-175.29,-996.58,-2.94,1.16,0.21,-3.30,1.05,-67.35,36.0
2026/04/20 22:44:05.29,IMU,-190.92,-177.73,-989.26,-1.24,0.24,-2.50,-1.95,0.15,-67.65,36.1
2026/04/20 22:44:05.39,IMU,-195.80,-167.97,-1010.25,-0.26,-0.57,0.80,-2.10,1.05,-67.05,36.1
2026/04/20 22:44:05.49,IMU,-209.47,-174.80,-995.61,-0.43,-2.66,0.15,-3.45,0.90,-65.85,35.9
2026/04/20 22:44:05.59,IMU,-187.01,-166.50,-1001.46,-0.08,-0.16,-2.23,-2.85,1.80,-67.35,36.2
2026/04/20 22:44:05.69,IMU,-200.68,-173.34,-1009.28,0.37,-0.08,1.82,-2.10,2.25,-66.75,36.1
2026/04/20 22:44:05.79,IMU,-183.11,-165.53,-1009.77,1.72,2.41,0.09,-2.25,1.65,-65.40,36.0
2026/04/20 22:44:05.89,IMU,-188.48,-162.11,-998.54,-1.38,-1.04,-0.63,-0.60,1.50,-66.75,35.7
2026/04/20 22:44:05.99,IMU,-186.52,-163.09,-1012.21,-0.98,0.63,-0.36,-2.10,-0.30,-66.30,35.8
2026/04/20 22:44:06.09,IMU,-200.20,-165.04,-988.77,1.66,0.55,-0.55,-1.35,0.30,-67.80,35.6
2026/04/20 22:44:06.19,IMU,-178.71,-183.59,-990.72,0.69,1.72,-0.90,-1.80,1.50,-66.00,36.3
2026/04/20 22:44:06.29,IMU,-187.50,-177.25,-995.12,-1.39,-0.23,0.76,-2.70,0.90,-66.15,36.1
2026/04/20 22:44:06.39,IMU,-172.36,-172.36,-1000.49,-2.13,-1.53,-1.01,-1.65,0.90,-67.65,35.9
2026/04/20 22:44:06.50,IMU,-188.48,-169.92,-987.30,-0.41,0.28,2.27,-2.85,3.00,-67.05,35.9
2026/04/20 22:44:06.60,IMU,-196.29,-173.34,-992.19,1.43,-2.82,-1.50,-2.85,1.80,-66.30,36.1
2026/04/20 22:44:06.70,IMU,-193.85,-160.64,-990.23,1.32,1.26,0.24,-1.95,1.20,-67.20,35.9
2026/04/20 22:44:06.80,IMU,-193.36,-170.90,-987.30,0.67,0.30,0.34,-1.80,1.50,-66.75,36.1
2026/04/20 22:44:06.90,IMU,-196.78,-168.95,-995.61,0.33,2.23,-1.81,-1.65,2.40,-67.20,36.1
2026/04/20 22:44:07.00,IMU,-187.99,-166.99,-999.02,-0.73,1.78,-2.40,-3.30,1.80,-65.25,35.9
2026/04/20 22:44:07.10,IMU,-196.78,-161.13,-996.09,0.80,-0.34,-0.11,-3.45,0.90,-66.15,36.1
2026/04/20 22:44:07.20,IMU,-194.34,-169.92,-997.07,0.08,1.98,1.07,-1.05,1.05,-67.05,35.7
2026/04/20 22:44:07.30,IMU,-198.73,-159.67,-995.61,0.54,-0.69,-2.18,-1.20,1.65,-66.45,35.9
2026/04/20 22:44:07.40,IMU,-181.64,-163.57,-1010.74,-0.21,-0.41,2.38,-2.85,2.55,-64.95,36.1
2026/04/20 22:44:07.50,IMU,-192.38,-166.02,-994.63,0.01,0.37,-2.72,-1.80,0.30,-66.75,36.0
2026/04/20 22:44:07.60,IMU,-188.96,-167.48,-1013.18,-0.42,0.34,0.97,-1.80,1.50,-66.75,35.9
2026/04/20 22:44:07.70,IMU,-202.64,-168.46,-1002.93,-1.19,-1.40,3.94,-2.25,1.65,-67.65,36.1
2026/04/20 22:44:07.80,IMU,-172.36,-169.43,-990.72,-0.03,-1.61,-1.47,-1.95,2.70,-65.85,35.9
2026/04/20 22:44:07.92,IMU,694.82,-181.15,-1385.25,27.26,7.63,22.40,-9.15,-4.50,-69.30,35.9
2026/04/20 22:44:08.02,IMU,61.52,-222.17,-807.62,-34.11,4.77,-32.36,-1.05,0.30,-62.70,36.0
2026/04/20 22:44:08.12,IMU,-471.19,-208.50,-812.01,-18.67,60.63,27.84,-1.35,2.55,-64.50,35.9
2026/04/20 22:44:08.22,IMU,56.64,-108.40,-784.18,0.26,-45.40,-26.97,-6.30,1.95,-64.65,35.7
2026/04/20 22:44:08.32,IMU,55.66,-71.78,-1125.49,7.88,-15.24,3.10,-3.45,1.20,-65.40,35.8
2026/04/20 22:44:08.42,IMU,-218.75,-140.63,-991.70,4.61,4.11,0.19,-2.85,1.50,-64.95,36.1
2026/04/20 22:44:08.52,IMU,-147.95,-199.22,-971.68,-6.85,-9.88,-12.83,-3.45,0.90,-65.85,35.9
2026/04/20 22:44:08.62,IMU,-250.00,-165.04,-916.50,-2.38,-9.34,-3.18,-1.95,0.90,-65.85,35.7
2026/04/20 22:44:08.72,IMU,-109.86,-83.50,-735.35,-12.50,-5.53,-12.75,-0.15,-0.15,-65.85,35.7
2026/04/20 22:44:08.83,IMU,-210.94,-169.43,-1145.02,12.74,-31.89,-0.27,-0.60,0.00,-64.20,35.9
2026/04/20 22:44:08.93,IMU,-275.88,-201.66,-1026.86,3.44,-0.25,-5.37,2.25,-0.45,-62.85,35.7
2026/04/20 22:44:09.03,IMU,-176.76,-208.01,-1229.00,-2.15,7.85,2.06,-1.20,-3.60,-57.45,35.7
2026/04/20 22:44:09.13,IMU,-214.84,-237.79,-872.56,-4.99,7.77,-82.74,2.85,-2.25,-60.15,35.9
2026/04/20 22:44:09.23,IMU,-63.48,-219.73,-803.71,-16.41,36.98,14.27,-0.15,-1.95,-61.80,35.7
2026/04/20 22:44:09.33,IMU,-66.41,-175.78,-1083.01,18.21,26.15,-47.90,-1.95,-0.15,-59.25,35.7
2026/04/20 22:44:09.43,IMU,-14.65,-238.28,-1119.63,12.55,11.54,-26.81,-6.30,-2.70,-61.50,35.9
2026/04/20 22:44:09.53,IMU,-319.82,-361.33,-1007.81,37.43,26.52,17.74,-7.80,-3.60,-60.75,35.6
2026/04/20 22:44:09.63,IMU,-199.71,-390.14,-1134.77,18.50,24.53,-15.95,-11.10,-6.60,-60.45,35.8
2026/04/20 22:44:09.73,IMU,111.82,-328.61,-879.88,-25.24,29.34,-0.85,-12.00,-6.75,-61.65,36.0
2026/04/20 22:44:09.83,IMU,16.11,-316.89,-1093.26,8.47,21.40,-8.96,-14.40,-5.85,-61.05,35.9
2026/04/20 22:44:09.93,IMU,45.90,-410.16,-930.66,1.60,3.94,-6.27,-16.35,-5.85,-61.50,35.6
2026/04/20 22:44:10.03,IMU,89.84,-366.70,-943.85,-1.70,9.78,-1.92,-17.40,-6.90,-61.80,35.4
2026/04/20 22:44:10.13,IMU,144.53,-354.49,-907.23,12.31,2.95,-3.14,-17.10,-7.65,-61.50,35.9
2026/04/20 22:44:10.24,IMU,184.08,-371.09,-983.40,-0.38,8.69,14.64,-18.45,-8.40,-61.50,35.9
2026/04/20 22:44:10.34,IMU,104.98,-391.11,-879.88,11.18,-6.91,-4.24,-16.80,-10.20,-62.40,36.1
2026/04/20 22:44:10.44,IMU,250.98,-387.70,-954.10,6.68,10.52,-2.19,-18.90,-10.35,-61.80,35.9
2026/04/20 22:44:10.54,IMU,204.10,-396.97,-945.80,-8.75,2.37,5.34,-20.55,-9.45,-61.95,35.9
2026/04/20 22:44:10.64,IMU,234.38,-418.46,-1093.75,13.31,15.70,1.95,-19.80,-9.75,-61.65,35.9
2026/04/20 22:44:10.74,IMU,192.87,-498.54,-721.68,36.39,13.69,0.79,-19.50,-12.15,-60.60,35.8
2026/04/20 22:44:10.84,IMU,146.97,-443.85,-978.52,7.10,-0.14,8.31,-21.45,-13.05,-60.00,35.6
2026/04/20 22:44:10.94,IMU,189.45,-428.71,-976.07,-2.20,11.86,17.96,-20.85,-14.70,-59.85,35.8
2026/04/20 22:44:11.04,IMU,125.49,-499.51,-894.04,4.53,7.94,9.98,-20.40,-14.10,-59.25,35.9
2026/04/20 22:44:11.14,IMU,209.96,-493.65,-818.36,-13.32,15.91,11.10,-20.10,-16.20,-59.10,35.9
2026/04/20 22:44:11.24,IMU,223.14,-473.63,-825.20,-2.01,4.73,6.07,-20.10,-14.40,-59.55,36.0
2026/04/20 22:44:11.34,IMU,256.35,-480.47,-798.83,2.55,-3.60,-1.97,-19.05,-16.95,-59.85,35.8
2026/04/20 22:44:11.44,IMU,166.99,-515.14,-794.43,-3.05,2.51,-5.72,-20.70,-15.75,-60.45,36.1
2026/04/20 22:44:11.55,IMU,164.55,-499.02,-932.62,0.27,2.15,4.89,-21.15,-16.50,-59.25,35.7
2026/04/20 22:44:11.65,IMU,131.35,-506.35,-895.02,10.69,-3.86,7.89,-19.95,-15.30,-58.95,35.7
2026/04/20 22:44:11.75,IMU,216.80,-611.33,-233.40,48.05,30.82,-24.69,-13.20,-19.65,-58.35,35.7
2026/04/20 22:44:11.85,IMU,-74.22,-414.06,-747.07,-57.56,-18.64,3.09,-10.65,-18.90,-56.25,36.0
2026/04/20 22:44:11.95,IMU,20.02,-607.42,-1120.61,-60.15,-70.81,6.41,-10.20,-17.70,-57.75,35.8
2026/04/20 22:44:12.05,IMU,37.11,-349.12,-843.75,-43.05,-33.11,-12.92,-8.55,-12.30,-60.45,35.9
2026/04/20 22:44:12.15,IMU,17.58,-354.98,-1000.00,-90.96,15.40,30.85,-5.10,-9.00,-59.55,35.9
2026/04/20 22:44:12.25,IMU,-132.32,-158.69,-884.28,-72.63,-47.11,17.50,-4.35,-0.30,-60.90,35.6
2026/04/20 22:44:12.35,IMU,-176.76,18.55,-1247.56,-66.66,7.76,5.95,0.00,6.45,-63.75,35.8
2026/04/20 22:44:12.45,IMU,-165.04,-77.15,-1209.47,-33.31,17.67,-12.27,-1.95,6.90,-64.05,36.1
2026/04/20 22:44:12.55,IMU,-129.88,-23.44,-1123.05,-1.14,7.13,11.55,-2.25,8.85,-61.80,35.6
2026/04/20 22:44:12.65,IMU,-152.83,-27.34,-1067.38,0.16,-7.83,9.36,-2.55,8.25,-63.15,36.1
2026/04/20 22:44:12.75,IMU,-126.46,-75.20,-1028.81,11.15,-16.67,0.91,-0.45,8.40,-62.85,35.9
2026/04/20 22:44:12.85,IMU,-242.19,-64.94,-959.96,5.11,-7.51,-1.82,1.65,7.65,-61.05,36.1
2026/04/20 22:44:12.96,IMU,-252.93,-47.85,-957.03,-1.89,-5.75,-2.06,3.00,7.65,-62.25,35.9
2026/04/20 22:44:13.06,IMU,-73.73,-3.42,-1053.71,1.32,-5.07,2.15,-1.20,7.65,-62.55,36.3
2026/04/20 22:44:13.16,IMU,-120.61,-17.58,-1029.79,0.22,5.14,4.98,0.30,7.95,-63.45,35.9
2026/04/20 22:44:13.26,IMU,-138.18,-4.39,-1009.28,1.30,-2.11,-2.96,-1.35,7.50,-63.75,35.9
2026/04/20 22:44:13.36,IMU,-148.93,-16.60,-1026.37,-0.76,0.69,-0.62,0.45,7.35,-64.35,35.9
2026/04/20 22:44:13.46,IMU,-161.13,-15.63,-1013.67,-1.11,1.67,0.57,-1.65,6.60,-62.55,36.0
2026/04/20 22:44:13.57,IMU,-161.13,-24.90,-1008.30,1.18,1.89,0.78,-0.15,8.40,-62.85,36.3
2026/04/20 22:44:13.67,IMU,-147.46,-20.51,-1023.93,1.77,2.15,-1.66,-0.60,7.20,-63.45,36.2
2026/04/20 22:44:13.77,IMU,-162.60,-23.93,-1016.60,0.15,-2.33,-0.22,-0.90,9.60,-62.25,36.2
2026/04/20 22:44:13.87,IMU,-161.62,-26.37,-1022.95,0.21,-1.68,-0.18,-0.45,7.35,-62.85,36.2
2026/04/20 22:44:13.97,IMU,-163.09,-20.02,-1025.39,0.78,2.56,0.02,-0.30,7.95,-63.45,36.1
2026/04/20 22:44:14.07,IMU,-160.64,-32.71,-1015.14,-0.63,-1.44,0.20,-1.20,7.65,-63.60,36.1
2026/04/20 22:44:14.17,IMU,-161.62,-27.83,-1009.77,1.83,-0.66,-1.65,-4.50,6.15,-58.95,36.3
2026/04/20 22:44:14.28,IMU,-165.04,-17.09,-1021.00,1.06,0.14,-1.63,-1.05,7.95,-63.75,36.1
2026/04/20 22:44:14.38,IMU,-165.53,-24.41,-1014.65,-0.95,0.28,-1.05,-0.45,8.10,-64.05,36.1
2026/04/20 22:44:14.48,IMU,-151.37,-7.81,-1010.25,-1.93,1.66,0.27,-0.45,8.85,-62.85,36.3
2026/04/20 22:44:14.58,IMU,-173.83,-25.39,-1012.70,0.50,-1.92,0.17,0.30,6.45,-63.15,36.1
2026/04/20 22:44:14.68,IMU,-175.78,-39.55,-1004.39,-0.90,0.31,-0.57,0.15,8.85,-62.55,36.1
2026/04/20 22:44:14.78,IMU,-167.97,-47.36,-1008.30,-1.95,3.61,-0.60,0.00,6.75,-62.70,36.4
2026/04/20 22:44:14.88,IMU,-166.50,-29.79,-1014.65,-1.13,0.98,-0.70,-0.45,8.10,-63.60,36.2
2026/04/20 22:44:14.98,IMU,-173.34,-39.06,-1018.07,-1.29,2.11,-0.40,0.60,8.70,-63.15,35.8
2026/04/20 22:44:15.08,IMU,-155.76,-42.97,-1021.97,3.50,-3.52,3.60,0.30,7.95,-62.70,36.3
2026/04/20 22:44:15.19,IMU,-166.99,-12.70,-1014.65,1.12,-4.52,2.81,0.15,7.35,-62.85,36.1
2026/04/20 22:44:15.29,IMU,-161.62,-28.32,-1016.60,-0.27,-1.15,3.01,-0.30,7.50,-63.75,36.2
2026/04/20 22:44:15.39,IMU,-158.69,-14.16,-1023.44,2.05,-0.83,3.25,-0.45,8.40,-62.85,36.5
2026/04/20 22:44:15.49,IMU,-204.10,-65.43,-1018.55,-0.05,1.87,-1.60,-0.15,8.85,-64.05,36.1
2026/04/20 22:44:15.59,IMU,-148.93,-85.94,-1025.88,0.15,-0.65,0.04,-0.45,7.35,-62.55,36.0
2026/04/20 22:44:15.69,IMU,-171.88,-32.71,-1027.83,3.01,-3.24,4.63,-0.60,9.00,-62.70,36.1
2026/04/20 22:44:15.79,IMU,-179.20,-5.86,-1007.81,-1.43,1.53,1.23,0.15,8.40,-64.35,36.0
2026/04/20 22:44:15.89,IMU,-159.18,-39.06,-1019.04,0.37,-1.68,1.03,0.30,7.95,-63.75,36.2
2026/04/20 22:44:15.99,IMU,-167.97,-26.86,-1010.74,-0.73,1.27,-0.02,0.15,7.65,-62.55,36.2
2026/04/20 22:44:16.10,IMU,-179.69,-26.86,-1025.88,1.21,0.03,0.59,-0.90,8.10,-63.30,36.0
2026/04/20 22:44:16.20,IMU,-157.23,-20.02,-1022.95,-0.56,-1.96,1.35,-0.90,8.10,-64.05,35.9
2026/04/20 22:44:16.30,IMU,-171.88,-23.44,-1002.93,0.08,-1.44,-0.79,-0.45,9.30,-63.60,35.8
2026/04/20 22:44:16.40,IMU,-178.22,-26.37,-1000.49,1.13,-0.80,-2.83,-0.30,7.50,-64.20,35.9
2026/04/20 22:44:16.50,IMU,-161.62,-30.27,-1022.95,-1.52,2.31,-0.85,-0.45,7.35,-63.30,36.0
2026/04/20 22:44:16.60,IMU,-177.73,-31.25,-1019.53,0.15,0.36,-0.74,0.30,7.50,-63.45,35.7
2026/04/20 22:44:16.70,IMU,-166.99,-23.93,-1030.76,0.29,-0.73,-2.32,0.60,7.50,-64.20,36.0
2026/04/20 22:44:16.80,IMU,-170.41,-22.95,-1015.63,-1.11,1.83,-0.06,0.30,7.95,-62.70,35.9
2026/04/20 22:44:16.91,IMU,-155.27,-18.55,-1025.39,-1.01,0.76,0.20,-0.30,8.70,-64.20,36.1
2026/04/20 22:44:17.01,IMU,-172.85,-25.39,-1022.95,-1.40,-3.21,1.15,0.45,7.65,-62.85,35.8
2026/04/20 22:44:17.11,IMU,-174.80,-21.00,-1011.72,1.98,-0.91,-0.44,0.30,6.75,-63.15,36.1
2026/04/20 22:44:17.21,IMU,-170.41,-28.81,-1018.07,0.73,-1.76,1.23,-0.45,6.90,-61.05,35.9
2026/04/20 22:44:17.31,IMU,-166.50,-35.16,-1012.21,-0.25,1.27,0.51,0.45,7.65,-62.55,35.8
2026/04/20 22:44:17.41,IMU,-167.48,-24.90,-1013.67,1.51,-0.36,1.03,1.05,8.25,-64.95,35.7
2026/04/20 22:44:17.51,IMU,-168.46,-21.97,-1022.95,-0.86,-2.36,-3.20,0.00,7.50,-63.15,36.1
2026/04/20 22:44:17.61,IMU,-162.11,-32.23,-1016.60,1.57,1.56,-0.35,0.15,9.30,-62.85,36.0
2026/04/20 22:44:17.71,IMU,-170.90,-25.39,-1023.44,-1.50,-2.11,1.68,-1.05,9.00,-62.70,36.2
2026/04/20 22:44:17.82,IMU,-158.69,-33.69,-1008.79,-1.00,1.84,-1.22,-0.15,8.10,-62.55,36.0
2026/04/20 22:44:17.92,IMU,-177.25,-22.95,-1027.83,2.07,0.89,0.56,0.45,6.90,-62.55,35.9
2026/04/20 22:44:18.02,IMU,-168.95,-49.80,-1015.63,-0.57,-0.46,-0.64,0.30,7.50,-63.45,35.9
2026/04/20 22:44:18.12,IMU,-164.55,-32.23,-1039.06,-0.28,0.21,3.23,-0.45,9.30,-64.05,35.9
2026/04/20 22:44:18.22,IMU,-164.55,-22.46,-1012.70,-0.27,0.10,0.29,0.00,7.95,-63.45,35.7
2026/04/20 22:44:18.32,IMU,-179.20,-20.02,-1038.57,0.95,0.59,-0.29,0.45,6.60,-64.35,35.9
2026/04/20 22:44:18.42,IMU,-164.06,-31.74,-1015.63,0.79,-0.32,3.07,-0.45,7.35,-62.85,35.9
2026/04/20 22:44:18.52,IMU,-171.88,-11.23,-1025.88,0.23,1.71,1.53,-1.35,7.95,-63.45,35.7
2026/04/20 22:44:18.62,IMU,-182.13,-30.27,-1015.63,2.13,-1.08,-2.02,-1.65,8.40,-64.65,35.4
2026/04/20 22:44:18.72,IMU,-163.57,-42.48,-1022.95,0.34,-1.72,-2.68,0.90,8.85,-62.85,35.3
2026/04/20 22:44:18.82,IMU,-176.76,-28.81,-1021.48,1.78,0.23,-1.61,-0.60,7.20,-64.20,35.7
2026/04/20 22:44:18.92,IMU,-159.67,-23.93,-1020.02,1.11,-2.23,1.59,-0.15,6.90,-63.30,35.6
2026/04/20 22:44:19.02,IMU,-166.99,-33.69,-1007.32,0.50,1.21,-0.12,-0.60,8.25,-63.75,35.6
2026/04/20 22:44:19.13,IMU,-179.69,-28.32,-1034.18,0.85,1.34,0.26,-0.15,8.10,-62.55,35.1
2026/04/20 22:44:19.23,IMU,-163.09,-24.41,-1016.11,-0.67,1.18,-1.64,-0.90,9.30,-64.35,35.7
2026/04/20 22:44:19.33,IMU,-167.97,-27.34,-1021.48,-0.43,-0.73,-0.24,-0.45,7.65,-64.05,35.2
2026/04/20 22:44:19.43,IMU,-181.64,-23.44,-1048.83,-0.19,3.72,-0.38,-0.90,7.35,-62.85,35.6
2026/04/20 22:44:19.53,IMU,-154.79,-34.67,-1037.11,1.44,-0.08,-0.11,0.90,7.35,-62.85,35.4
2026/04/20 22:44:19.63,IMU,-169.43,-22.46,-1030.76,-1.00,0.14,-1.53,-0.30,6.75,-62.40,35.5
2026/04/20 22:44:19.73,IMU,-165.04,-35.16,-1013.18,-1.80,-0.58,-1.88,0.45,7.35,-63.60,35.6
2026/04/20 22:44:19.83,IMU,-154.30,-23.93,-980.47,1.05,-0.10,-0.97,-1.20,6.60,-63.30,35.6
2026/04/20 22:44:19.93,IMU,-167.48,-27.83,-1040.53,-3.63,0.73,0.82,-0.15,8.40,-64.05,35.4
2026/04/20 22:44:20.03,IMU,-158.20,-25.39,-1025.88,-0.37,1.19,2.56,-0.60,7.95,-63.15,35.6
2026/04/20 22:44:20.13,IMU,-158.69,-29.30,-1014.65,1.08,-0.86,2.18,-0.30,7.50,-65.25,35.6
2026/04/20 22:44:20.23,IMU,-163.57,-32.71,-1020.02,-0.13,1.27,1.29,-1.05,7.50,-64.20,35.2
2026/04/20 22:44:20.33,IMU,-147.46,-33.69,-1016.11,1.30,0.98,-0.82,-2.25,6.15,-60.75,35.2
2026/04/20 22:44:20.43,IMU,-182.13,-23.93,-1016.60,-0.50,-1.74,-0.44,-0.30,7.95,-63.45,35.2
2026/04/20 22:44:20.54,IMU,-207.52,-38.57,-1017.09,0.78,1.92,1.85,0.15,8.40,-64.65,35.0
2026/04/20 22:44:20.64,IMU,-171.88,-28.32,-991.70,0.23,0.89,0.04,-0.30,8.25,-62.40,34.9
2026/04/20 22:44:20.74,IMU,-176.76,-25.88,-1010.25,0.14,0.80,0.62,0.15,8.85,-63.60,34.9
2026/04/20 22:44:20.84,IMU,-155.76,-36.13,-1017.58,-0.52,1.99,-2.00,0.15,8.40,-63.60,35.5
2026/04/20 22:44:20.94,IMU,-144.04,-20.51,-1010.25,1.07,-3.34,-2.64,0.60,9.00,-63.45,35.2
2026/04/20 22:44:21.04,IMU,-182.62,-21.48,-1015.63,-1.92,0.30,0.28,0.00,7.95,-63.15,35.2
2026/04/20 22:44:21.14,IMU,-166.50,-26.86,-1014.16,0.47,0.79,0.73,-1.65,6.15,-64.35,35.2
2026/04/20 22:44:21.24,IMU,-175.78,-22.95,-1027.34,0.64,0.77,-2.36,-0.30,7.50,-63.15,35.3
2026/04/20 22:44:21.34,IMU,-140.14,-28.81,-1007.32,0.14,-2.02,0.95,-3.30,7.95,-57.75,35.0
2026/04/20 22:44:21.44,IMU,-175.29,-28.81,-1019.53,0.90,1.57,1.99,-0.30,8.70,-63.15,34.7
2026/04/20 22:44:21.54,IMU,-171.39,-25.39,-1004.88,2.46,-2.60,0.24,-0.60,8.70,-64.20,35.1
2026/04/20 22:44:21.64,IMU,-163.09,-25.88,-1013.18,1.19,-1.21,1.41,0.15,7.65,-63.30,34.6
2026/04/20 22:44:21.74,IMU,-161.13,-28.81,-1024.41,2.22,-2.19,1.82,-0.90,8.10,-62.55,35.1
2026/04/20 22:44:21.84,IMU,-173.83,-26.37,-1019.53,0.69,-1.28,-0.52,0.00,7.20,-63.15,35.0
2026/04/20 22:44:21.94,IMU,-170.41,-18.55,-1015.14,0.23,1.71,3.13,1.05,7.50,-63.45,34.9
2026/04/20 22:44:22.05,IMU,-164.55,-27.83,-1013.18,1.92,-0.47,2.07,-0.45,8.85,-64.35,35.2
2026/04/20 22:44:22.15,IMU,-175.29,-21.97,-1012.21,-0.27,1.37,2.09,0.15,8.10,-63.30,35.0
2026/04/20 22:44:22.25,IMU,-164.55,-29.30,-1023.93,0.08,2.40,-2.83,-0.30,8.25,-63.75,34.9
2026/04/20 22:44:22.35,IMU,-148.93,-30.27,-1020.02,-0.82,-0.89,0.83,-3.60,5.25,-58.35,34.7
2026/04/20 22:44:22.45,IMU,-168.95,-27.83,-1015.63,0.19,1.29,3.37,-1.35,7.20,-63.45,34.7
2026/04/20 22:44:22.55,IMU,-168.46,-34.67,-1010.74,0.47,-0.08,-2.58,0.45,7.65,-64.35,34.7
2026/04/20 22:44:22.65,IMU,-165.04,-35.64,-1032.71,1.37,-0.85,0.95,0.45,7.65,-62.85,34.9
2026/04/20 22:44:22.75,IMU,-156.74,-37.60,-1010.25,-1.24,-0.50,1.35,-0.30,8.70,-61.65,34.9
2026/04/20 22:44:22.85,IMU,-154.30,-14.65,-1016.11,1.90,-0.77,-2.11,0.45,8.40,-64.65,34.9
2026/04/20 22:44:22.96,IMU,-161.13,-13.67,-1014.65,-0.05,1.34,-1.44,0.45,8.10,-64.35,34.7
2026/04/20 22:44:23.07,IMU,-158.69,-36.13,-1030.76,0.99,-0.98,-2.51,-0.45,7.35,-63.30,34.7
2026/04/20 22:44:23.17,IMU,-153.81,-26.86,-1014.65,-0.39,-1.26,2.01,-1.05,8.70,-63.15,34.7
2026/04/20 22:44:23.27,IMU,-163.57,-13.67,-1019.53,2.55,0.17,-1.93,0.60,8.25,-61.95,34.7
2026/04/20 22:44:23.37,IMU,-160.64,-16.60,-1022.95,0.53,-1.43,-0.57,0.45,6.15,-62.85,34.9
2026/04/20 22:44:23.47,IMU,-157.71,-22.95,-1016.60,0.53,-0.27,2.00,0.15,8.40,-62.55,34.6
2026/04/20 22:44:23.57,IMU,-159.67,-25.88,-1003.42,-1.09,-1.20,0.58,-0.30,6.75,-63.75,34.5
2026/04/20 22:44:23.67,IMU,-168.46,-18.07,-1026.37,-0.06,-0.85,-1.24,0.15,8.10,-65.10,34.7
2026/04/20 22:44:23.78,IMU,-157.23,-24.90,-1014.16,3.27,-0.19,-1.44,1.35,8.25,-62.70,34.6
2026/04/20 22:44:23.88,IMU,-168.46,-20.02,-1017.58,0.14,0.18,0.38,-0.90,6.60,-63.60,34.7
2026/04/20 22:44:23.98,IMU,-175.29,-16.60,-1010.25,0.01,-0.10,0.53,0.00,8.70,-62.70,34.6
2026/04/20 22:44:24.08,IMU,-166.02,-10.74,-1017.58,-0.70,0.04,1.99,-0.90,7.65,-63.30,34.6
2026/04/20 22:44:24.18,IMU,-168.95,-32.71,-1019.53,-0.02,-1.39,-3.90,1.35,6.75,-63.75,34.6
2026/04/20 22:44:24.28,IMU,-161.62,-27.83,-1028.81,0.13,2.63,-0.04,0.15,9.30,-64.05,34.7
2026/04/20 22:44:24.38,IMU,-157.71,-30.27,-1026.86,-1.31,-0.02,0.99,0.00,7.95,-62.70,34.4
2026/04/20 22:44:24.48,IMU,-166.50,-29.79,-1008.79,1.30,1.44,1.03,1.05,7.50,-64.20,34.6
2026/04/20 22:44:24.58,IMU,-171.39,-23.44,-1019.04,1.11,0.02,-0.62,-1.65,6.90,-65.40,34.9
2026/04/20 22:44:24.68,IMU,-161.62,-14.16,-1014.16,-1.13,-2.63,2.54,0.60,7.95,-63.45,34.7
2026/04/20 22:44:24.78,IMU,-166.50,-27.34,-1029.79,1.19,1.57,1.44,0.30,7.20,-64.50,34.7
2026/04/20 22:44:24.88,IMU,-174.80,-26.37,-1013.67,-0.30,-0.27,-2.53,-1.05,6.00,-64.20,34.9
2026/04/20 22:44:24.98,IMU,-122.56,-64.94,-1033.69,7.04,2.11,2.06,0.90,8.10,-64.35,34.7
2026/04/20 22:44:25.08,IMU,-179.69,-28.81,-1003.91,1.42,-3.11,2.95,-0.90,6.90,-62.85,34.7
2026/04/20 22:44:25.18,IMU,-180.18,-48.34,-1026.86,-3.15,0.34,-1.99,-0.30,7.95,-63.45,34.6
2026/04/20 22:44:25.29,IMU,-158.20,-27.34,-1018.55,-0.01,0.82,0.26,0.60,8.70,-62.70,34.7
2026/04/20 22:44:25.39,IMU,-180.66,-5.37,-1009.28,0.76,-0.86,2.33,-0.45,7.35,-63.30,34.6
2026/04/20 22:44:25.49,IMU,-197.75,71.29,-1000.98,-1.95,5.41,-6.73,-1.80,7.50,-63.45,34.7
2026/04/20 22:44:25.59,IMU,-232.42,-223.14,-1103.52,-2.10,6.62,-6.23,-0.15,8.10,-61.80,34.6
2026/04/20 22:44:25.69,IMU,5.86,-75.68,-1044.43,-0.42,-2.56,4.46,0.30,6.00,-64.20,34.7
2026/04/20 22:44:25.79,IMU,-18.07,-28.81,-1032.71,3.06,-4.38,3.75,-0.15,9.30,-64.05,34.6
2026/04/20 22:44:25.90,IMU,-134.77,-17.58,-1036.13,1.54,-6.96,2.41,0.00,8.25,-62.70,34.6
2026/04/20 22:44:26.00,IMU,-126.46,-22.46,-1013.18,0.97,-2.79,-0.04,-0.15,7.65,-64.65,34.5
2026/04/20 22:44:26.10,IMU,-145.02,-38.57,-1039.55,1.00,-2.98,0.56,0.60,8.70,-63.75,34.9
2026/04/20 22:44:26.20,IMU,-164.55,-37.60,-1021.97,-1.02,1.02,-0.45,0.00,7.50,-63.45,34.7
2026/04/20 22:44:26.30,IMU,-163.57,-32.71,-1003.91,-0.86,-1.72,-2.88,-0.45,6.60,-63.30,34.5
2026/04/20 22:44:26.40,IMU,-176.27,-45.90,-1016.60,1.47,0.76,-0.82,-0.30,7.50,-62.40,34.5
2026/04/20 22:44:26.51,IMU,-199.22,-21.48,-1016.11,0.98,0.31,-0.89,-0.15,8.85,-64.05,34.6
2026/04/20 22:44:26.61,IMU,-173.83,-37.11,-1021.48,1.84,-0.91,1.02,0.00,6.45,-64.50,34.6
2026/04/20 22:44:26.71,IMU,-166.99,-29.30,-1020.02,-1.62,1.50,0.18,0.45,7.65,-64.05,34.6
2026/04/20 22:44:26.81,IMU,-168.46,-25.39,-1017.09,-0.08,-0.91,0.07,-0.45,7.35,-63.30,34.5
2026/04/20 22:44:26.91,IMU,-170.90,-28.81,-1019.04,-0.08,-0.08,-1.47,0.00,8.25,-62.70,34.7
2026/04/20 22:44:27.01,IMU,-165.53,-32.23,-1021.00,1.06,0.94,-1.80,0.00,7.20,-63.45,34.5
2026/04/20 22:44:27.11,IMU,-167.97,-20.51,-1012.70,-0.85,-1.14,-1.33,-1.20,6.60,-64.65,34.6
2026/04/20 22:44:27.21,IMU,-156.25,-31.74,-1011.72,-3.01,1.97,-0.93,-0.30,7.50,-63.45,34.5
2026/04/20 22:44:27.31,IMU,-189.94,27.34,-1013.18,-1.27,4.05,0.44,0.60,7.95,-63.75,34.5
2026/04/20 22:44:27.41,IMU,-123.05,-81.05,-1021.00,-1.37,3.70,-4.35,-0.90,8.40,-63.30,34.6
2026/04/20 22:44:27.51,IMU,-142.58,-43.46,-1008.30,0.50,0.05,2.91,0.60,8.70,-64.50,34.5
2026/04/20 22:44:27.61,IMU,-35.64,28.32,-1065.92,-5.98,11.11,-5.57,-0.60,7.95,-62.70,34.7
2026/04/20 22:44:27.71,IMU,-75.68,-51.27,-1040.53,-5.57,7.21,-8.22,0.30,7.95,-63.45,34.6
2026/04/20 22:44:27.81,IMU,-133.30,-50.78,-1034.18,-1.47,7.53,-1.21,-0.45,7.65,-64.35,34.3
2026/04/20 22:44:27.91,IMU,-102.54,-18.07,-1030.76,-2.23,5.21,-3.43,-1.35,10.20,-64.50,34.5
2026/04/20 22:44:28.02,IMU,-114.26,-46.88,-1017.09,-0.23,3.21,-0.58,-0.45,6.60,-64.05,34.5
2026/04/20 22:44:28.12,IMU,-91.80,-58.59,-1049.32,1.91,-2.21,2.60,-0.15,7.65,-61.80,34.5
2026/04/20 22:44:28.22,IMU,-129.39,1.95,-1019.04,1.75,1.79,2.37,0.00,7.20,-64.20,34.6
2026/04/20 22:44:28.32,IMU,-167.97,-22.46,-1001.46,-0.75,2.38,-2.20,-0.45,7.35,-62.25,34.5
2026/04/20 22:44:28.42,IMU,-179.20,-40.04,-1007.32,-3.33,3.27,-2.63,-2.10,7.20,-63.75,34.6
2026/04/20 22:44:28.52,IMU,-174.32,-39.06,-1011.23,0.35,1.79,1.18,-0.60,7.95,-64.95,34.4
2026/04/20 22:44:28.62,IMU,-166.99,-38.09,-1007.32,-1.24,3.40,-0.77,-0.45,8.10,-62.55,34.7
2026/04/20 22:44:28.72,IMU,-164.06,-9.28,-1015.14,0.03,0.70,-0.21,-1.05,8.70,-64.20,34.5
2026/04/20 22:44:28.82,IMU,-155.76,-27.34,-1010.74,0.06,-0.05,0.25,-0.45,6.90,-63.60,34.6
2026/04/20 22:44:28.92,IMU,-161.13,-13.67,-1009.77,0.19,-0.91,-1.56,0.15,8.85,-63.30,34.4
2026/04/20 22:44:29.02,IMU,-164.55,-27.34,-998.54,0.30,1.41,1.99,1.65,7.35,-63.30,34.6
2026/04/20 22:44:29.12,IMU,-160.16,-27.34,-1022.95,0.80,1.60,0.63,0.45,5.85,-63.60,34.6
2026/04/20 22:44:29.22,IMU,-159.67,-11.23,-1017.09,1.16,0.27,1.03,-1.05,7.95,-64.50,34.6
2026/04/20 22:44:29.32,IMU,-157.23,-39.55,-1025.39,0.44,-1.27,-2.78,-0.30,8.70,-62.70,34.5
2026/04/20 22:44:29.42,IMU,-169.92,-40.53,-1019.04,-1.04,1.21,0.71,-0.45,7.35,-64.05,34.5
2026/04/20 22:44:29.53,IMU,-150.88,-34.67,-1003.91,1.26,1.28,1.32,-1.80,8.25,-62.40,34.5
2026/04/20 22:44:29.63,IMU,-161.62,-20.51,-1013.67,0.45,1.02,0.36,1.05,6.45,-63.15,34.7
2026/04/20 22:44:29.73,IMU,-150.39,-26.86,-1012.21,-0.78,1.67,1.46,-1.05,7.20,-63.45,34.7
2026/04/20 22:44:29.83,IMU,-173.34,-16.60,-998.05,0.92,-1.62,-2.18,0.15,8.40,-62.85,34.4
2026/04/20 22:44:29.93,IMU,-153.81,-22.46,-1013.67,1.03,0.51,0.11,0.60,7.95,-62.70,34.7
2026/04/20 22:44:30.03,IMU,-161.62,-25.88,-1015.63,-0.69,-0.54,1.08,0.15,7.65,-64.05,34.5
2026/04/20 22:44:30.13,IMU,-164.06,-23.93,-1032.71,1.06,0.30,-0.03,-1.20,6.90,-63.60,34.6
2026/04/20 22:44:30.23,IMU,-174.32,-27.34,-1018.07,0.08,1.79,2.18,-0.60,8.25,-63.15,34.5
2026/04/20 22:44:30.33,IMU,-174.80,-30.27,-1020.51,-0.05,0.96,-0.61,-0.90,8.10,-62.55,34.2
2026/04/20 22:44:30.43,IMU,-173.34,-21.00,-1024.90,-1.77,-0.40,0.73,-0.60,8.70,-63.75,34.2
2026/04/20 22:44:30.53,IMU,-159.67,-14.65,-1026.37,0.72,-0.31,-0.23,-4.20,5.10,-58.95,34.3
2026/04/20 22:44:30.63,IMU,-160.64,-21.00,-1005.37,-1.48,-0.47,-1.12,-0.30,7.20,-63.45,34.4
2026/04/20 22:44:30.73,IMU,-150.88,-25.39,-1031.25,-1.60,-2.42,-2.11,0.15,7.35,-64.35,34.2
2026/04/20 22:44:30.84,IMU,-181.15,-20.02,-1024.90,-0.33,1.41,-1.34,-0.30,6.00,-62.40,34.2
2026/04/20 22:44:30.94,IMU,-146.48,-18.55,-1023.93,0.64,1.70,1.41,-0.90,9.30,-63.30,34.5
2026/04/20 22:44:31.04,IMU,-169.43,-14.16,-1021.97,-0.56,1.41,-0.67,-1.65,8.85,-63.60,34.5
2026/04/20 22:44:31.14,IMU,-159.18,-24.90,-1019.53,-0.42,1.28,-1.37,-0.90,7.35,-63.30,34.5
2026/04/20 22:44:31.24,IMU,-166.99,-28.32,-1007.81,2.08,-3.26,0.36,0.60,8.70,-63.75,34.4
2026/04/20 22:44:31.34,IMU,-163.09,-33.20,-1011.23,-1.06,1.37,-1.62,-0.90,7.35,-64.35,34.4
2026/04/20 22:44:31.44,IMU,-167.48,-23.93,-1013.18,-2.21,-0.97,1.49,-0.30,7.20,-63.15,34.4
2026/04/20 22:44:31.55,IMU,-160.16,-31.74,-1017.09,0.75,1.24,-0.24,-4.50,5.40,-57.90,34.4
2026/04/20 22:44:31.65,IMU,-160.64,-26.37,-1005.37,-0.64,-0.75,-1.15,-1.20,8.85,-64.05,34.2
2026/04/20 22:44:31.76,IMU,-166.50,-19.04,-1008.30,1.04,0.85,2.64,-1.35,7.50,-63.45,34.2
2026/04/20 22:44:31.86,IMU,-160.16,-33.20,-1023.44,1.53,-1.32,-0.62,-1.20,8.10,-63.60,34.4
2026/04/20 22:44:31.96,IMU,-166.50,-33.20,-1019.53,-0.49,1.50,1.60,0.15,7.35,-64.05,34.4
2026/04/20 22:44:32.06,IMU,-165.04,-25.88,-1005.86,-0.50,-1.18,1.78,-0.60,7.50,-63.75,34.1
2026/04/20 22:44:32.16,IMU,-156.25,-26.37,-1015.63,0.15,0.85,-1.79,-0.60,8.25,-63.15,34.3
2026/04/20 22:44:32.26,IMU,-159.67,-32.71,-999.02,2.11,2.34,-3.04,-0.15,8.10,-64.35,34.5
2026/04/20 22:44:32.36,IMU,-157.23,-29.79,-1020.51,1.18,0.14,0.17,-2.25,7.65,-63.30,34.4
2026/04/20 22:44:32.46,IMU,-164.06,-29.30,-1023.44,1.61,-1.15,-0.26,0.15,7.35,-64.35,34.3
2026/04/20 22:44:32.56,IMU,-164.55,-23.44,-1012.70,-0.26,0.30,1.87,0.30,9.75,-63.45,34.4
2026/04/20 22:44:32.66,IMU,-159.67,-30.76,-1009.77,-0.05,-0.90,-3.17,-0.30,8.70,-63.75,34.3
2026/04/20 22:44:32.76,IMU,-170.90,-22.95,-1011.23,0.63,0.05,-2.15,0.15,6.90,-63.60,34.3
2026/04/20 22:44:32.86,IMU,-158.20,-25.39,-1011.23,1.53,0.66,0.41,-1.05,8.70,-63.45,34.0
2026/04/20 22:44:32.96,IMU,-158.69,-32.23,-1021.00,-0.75,-0.89,-2.38,-0.60,7.50,-64.50,34.1
2026/04/20 22:44:33.06,IMU,-182.13,-18.55,-1015.14,0.27,-2.25,-0.56,-1.20,8.40,-64.65,34.4
2026/04/20 22:44:33.16,IMU,-176.27,-20.51,-1015.63,0.51,2.36,-0.84,-0.15,8.10,-64.05,34.2
2026/04/20 22:44:33.27,IMU,-170.41,-30.76,-1003.91,0.94,0.14,-0.64,-0.15,7.35,-62.85,34.4
2026/04/20 22:44:33.37,IMU,-169.92,-26.37,-1011.72,1.47,3.27,0.75,-0.30,8.25,-64.20,34.2
2026/04/20 22:44:33.47,IMU,-159.67,-18.55,-1018.55,0.23,1.05,1.15,-0.45,6.90,-64.65,34.0
2026/04/20 22:44:33.57,IMU,-162.11,-28.81,-997.56,0.21,0.42,-0.95,-0.60,7.50,-63.45,34.3
2026/04/20 22:44:33.67,IMU,-143.07,-32.23,-1019.04,0.54,-0.11,-1.13,-0.90,8.85,-64.35,34.3
2026/04/20 22:44:33.77,IMU,-152.83,-24.90,-1002.44,-0.32,0.61,2.08,-0.15,7.65,-61.80,34.3
2026/04/20 22:44:33.87,IMU,-153.81,-21.97,-1011.72,0.45,0.53,-0.67,-0.90,8.40,-62.55,34.3
2026/04/20 22:44:33.97,IMU,-161.62,-34.18,-1017.58,0.31,-0.63,1.48,-0.15,7.65,-62.85,34.6
2026/04/20 22:44:34.07,IMU,-157.23,-13.67,-1027.34,1.69,0.79,-0.08,-1.65,9.30,-64.35,34.2
2026/04/20 22:44:34.17,IMU,-161.62,-28.32,-1008.79,-1.81,-0.37,0.80,0.60,9.00,-62.70,34.4
2026/04/20 22:44:34.27,IMU,-175.29,-30.76,-1033.20,0.34,-0.51,-0.34,0.45,8.85,-63.60,34.3
2026/04/20 22:44:34.37,IMU,-138.18,-24.90,-1027.34,-1.34,-0.32,1.21,-1.65,9.30,-64.35,34.4
2026/04/20 22:44:34.47,IMU,-161.13,-25.39,-1008.30,0.47,1.30,0.26,-1.80,7.50,-64.20,34.3
2026/04/20 22:44:34.57,IMU,-164.06,-34.67,-1029.30,-0.24,0.07,-0.44,0.00,7.50,-63.15,34.2
2026/04/20 22:44:34.67,IMU,-167.48,-26.37,-1027.83,1.60,1.87,3.47,-0.30,7.95,-63.15,34.0
2026/04/20 22:44:34.78,IMU,-164.06,-30.76,-1014.16,1.08,1.05,-3.96,0.00,7.50,-63.45,34.2
2026/04/20 22:44:34.88,IMU,-172.85,-19.04,-1023.93,1.05,0.83,2.84,0.45,7.65,-63.30,34.2
2026/04/20 22:44:34.98,IMU,-163.09,-24.41,-1006.84,-0.37,-0.84,0.91,1.35,8.25,-63.75,34.0
2026/04/20 22:44:35.08,IMU,-158.20,-22.46,-1010.74,-0.74,0.66,-0.31,-0.45,7.35,-63.60,34.2
2026/04/20 22:44:35.18,IMU,-158.20,-30.27,-1024.90,1.07,1.08,3.13,0.90,7.65,-62.85,34.5
2026/04/20 22:44:35.28,IMU,-174.80,-15.63,-1011.23,-0.01,-0.72,0.82,-0.45,7.65,-64.35,34.2
2026/04/20 22:44:35.38,IMU,-157.71,-29.79,-1019.04,-0.34,-0.87,-1.34,-1.05,7.20,-63.45,34.3
2026/04/20 22:44:35.48,IMU,-167.97,-11.23,-1031.25,-0.71,0.01,0.73,0.15,6.60,-65.10,34.4
2026/04/20 22:44:35.58,IMU,-164.55,-29.79,-1023.44,-1.57,0.98,0.29,-0.45,8.40,-63.30,34.4
2026/04/20 22:44:35.68,IMU,-167.97,-22.46,-1012.70,-1.04,2.36,-0.19,0.00,7.50,-64.50,34.4
2026/04/20 22:44:35.78,IMU,-170.90,-28.32,-1015.14,-1.06,0.83,-0.44,1.05,8.25,-63.45,34.3
2026/04/20 22:44:35.88,IMU,-159.67,-19.04,-1028.81,-1.15,-0.96,0.68,0.60,6.75,-64.20,34.5
2026/04/20 22:44:35.98,IMU,-160.64,-28.32,-1017.58,-1.10,2.03,0.88,-0.30,7.50,-64.20,34.4
2026/04/20 22:44:36.08,IMU,-170.90,-13.67,-1009.77,-0.54,-0.98,0.04,0.15,8.40,-64.65,34.2
2026/04/20 22:44:36.18,IMU,-165.53,-23.93,-1016.11,0.34,-2.56,-1.84,-1.05,7.20,-64.20,34.5
2026/04/20 22:44:36.29,IMU,-165.04,-42.48,-1014.16,-0.76,-1.16,-2.82,0.30,5.55,-63.45,34.2
2026/04/20 22:44:36.39,IMU,-167.97,-12.21,-1017.58,-1.35,1.65,-0.17,0.00,7.50,-61.65,34.3
2026/04/20 22:44:36.49,IMU,-154.79,-26.37,-1015.63,-0.62,-1.27,0.17,0.30,7.20,-64.20,34.4
2026/04/20 22:44:36.59,IMU,-150.39,-21.48,-1021.97,-0.50,-1.02,1.27,0.15,7.35,-63.60,34.0
2026/04/20 22:44:36.69,IMU,-164.06,-24.90,-1003.42,0.32,1.65,-1.19,-2.55,6.45,-60.60,34.4
2026/04/20 22:44:36.79,IMU,-161.13,-24.90,-1016.60,1.21,3.57,0.55,0.15,7.65,-63.60,34.4
2026/04/20 22:44:36.89,IMU,-168.46,-23.44,-1010.25,1.53,0.35,-1.03,-0.15,6.60,-64.35,34.2
2026/04/20 22:44:36.99,IMU,-158.69,-36.13,-1021.97,1.47,-0.03,-1.66,-1.05,8.25,-61.95,34.4
2026/04/20 22:44:37.09,IMU,-166.99,-25.88,-1005.86,0.88,1.51,1.24,-0.90,7.35,-65.10,34.4
2026/04/20 22:44:37.19,IMU,-162.60,-26.86,-1016.11,0.33,-1.59,-1.48,0.15,8.10,-63.60,34.4
2026/04/20 22:44:37.29,IMU,-170.41,-24.41,-1011.23,1.34,1.75,-1.53,-0.60,6.75,-63.45,34.4
2026/04/20 22:44:37.39,IMU,-168.46,-38.09,-1012.21,1.02,-0.63,-0.63,0.30,8.70,-63.45,34.5
2026/04/20 22:44:37.49,IMU,-162.60,-29.79,-1021.00,0.33,0.72,2.24,0.15,8.85,-64.35,34.4
2026/04/20 22:44:37.59,IMU,-163.57,-10.25,-1009.28,0.46,1.86,1.54,1.05,8.25,-64.20,34.5
2026/04/20 22:44:37.70,IMU,-169.43,-26.86,-1019.53,0.08,0.24,1.19,-2.10,6.45,-59.10,34.4
2026/04/20 22:44:37.80,IMU,-154.30,-32.23,-1020.51,1.84,-2.63,-3.24,-1.20,7.65,-64.05,34.4
2026/04/20 22:44:37.90,IMU,-161.13,-16.60,-1021.97,-1.61,0.19,1.05,0.30,7.95,-63.75,34.4
2026/04/20 22:44:38.00,IMU,-162.60,-22.95,-1004.88,0.34,0.18,1.31,-0.15,8.85,-62.85,34.5
2026/04/20 22:44:38.10,IMU,-161.13,-31.25,-1013.18,2.21,-2.32,-1.72,-0.15,6.60,-64.05,34.7
2026/04/20 22:44:38.20,IMU,-165.04,-27.83,-1013.18,2.14,-1.36,-1.02,0.15,7.65,-64.65,34.4
2026/04/20 22:44:38.30,IMU,-166.02,-19.53,-1011.72,-0.47,0.94,-0.68,-0.30,9.45,-63.75,34.5
2026/04/20 22:44:38.40,IMU,-172.85,-23.93,-1018.55,-0.59,-0.58,-0.47,0.15,8.10,-62.55,34.6
2026/04/20 22:44:38.50,IMU,-166.50,-25.39,-989.26,0.12,-0.26,0.67,-0.15,7.65,-62.55,34.5
2026/04/20 22:44:38.60,IMU,-158.20,-21.48,-1013.18,0.40,1.22,0.72,-0.30,7.50,-63.75,34.6
2026/04/20 22:44:38.70,IMU,-157.23,-24.41,-1018.07,-1.44,1.72,0.29,0.90,8.10,-65.10,34.3
2026/04/20 22:44:38.80,IMU,-165.04,-25.88,-1017.58,-0.02,-1.39,-0.86,0.45,8.85,-63.30,34.6
2026/04/20 22:44:38.90,IMU,-175.78,-21.97,-1016.11,-2.11,-0.71,1.95,0.15,7.35,-63.60,34.9
2026/04/20 22:44:39.02,IMU,-152.83,-33.20,-1003.42,-0.69,0.01,0.09,0.00,8.70,-61.95,34.4
2026/04/20 22:44:39.12,IMU,-157.23,-17.58,-1031.74,0.20,-0.80,-0.50,0.15,8.40,-63.60,34.6
2026/04/20 22:44:39.22,IMU,-165.53,-46.39,-1005.37,-0.35,-1.71,0.24,0.45,8.40,-63.30,34.5
2026/04/20 22:44:39.32,IMU,-168.46,-26.86,-1008.30,-0.73,1.98,-1.18,-0.15,8.85,-62.85,34.6
2026/04/20 22:44:39.42,IMU,-165.53,-27.83,-1013.67,-1.27,0.92,-0.83,-2.10,7.95,-63.75,34.5
2026/04/20 22:44:39.52,IMU,-164.06,-21.97,-1028.81,-0.76,0.93,-1.81,0.15,5.40,-64.35,34.9
2026/04/20 22:44:39.62,IMU,-158.20,-23.44,-1002.93,0.76,0.77,1.22,-0.30,8.25,-64.20,34.9
2026/04/20 22:44:39.72,IMU,-160.16,-33.20,-1022.46,1.55,0.47,2.98,0.30,9.00,-63.15,34.7
2026/04/20 22:44:39.82,IMU,-162.60,-32.71,-1022.46,0.44,2.49,0.25,-0.60,9.00,-63.15,34.6
2026/04/20 22:44:39.93,IMU,-158.20,-30.76,-1015.63,0.27,0.77,-2.66,-0.45,6.90,-62.55,34.9
2026/04/20 22:44:40.03,IMU,-165.04,-27.34,-1017.58,0.67,-0.69,1.85,-0.30,7.50,-64.95,34.4
2026/04/20 22:44:40.13,IMU,-164.06,-19.53,-1006.35,0.01,-0.45,-0.12,-0.45,7.65,-63.60,34.4
2026/04/20 22:44:40.23,IMU,-167.97,-28.32,-1017.09,0.34,1.44,-0.31,0.15,7.35,-64.05,34.7
2026/04/20 22:44:40.33,IMU,-159.67,-20.02,-1016.11,-0.69,-0.57,0.61,0.30,7.50,-63.45,34.7
2026/04/20 22:44:40.43,IMU,-154.79,-23.44,-1014.16,2.24,0.08,0.76,-1.20,7.65,-63.30,34.6
2026/04/20 22:44:40.53,IMU,-165.04,-32.23,-1015.14,1.94,-0.79,-0.98,-0.30,7.95,-63.45,34.5
2026/04/20 22:44:40.63,IMU,-153.81,-17.58,-1003.42,-1.49,1.85,0.88,0.30,7.50,-62.40,34.5
2026/04/20 22:44:40.73,IMU,-175.78,-25.88,-1004.39,-1.63,2.50,-1.74,-1.65,7.35,-63.60,34.6
2026/04/20 22:44:40.83,IMU,-171.88,-21.00,-1013.67,0.21,-1.92,-0.11,-1.05,6.45,-63.75,34.7
2026/04/20 22:44:40.93,IMU,-155.27,-33.20,-1020.51,-2.27,-0.40,-0.50,0.60,7.50,-61.95,34.9
2026/04/20 22:44:41.03,IMU,-164.06,-23.44,-1003.91,-1.77,-0.02,0.22,0.60,8.25,-63.15,34.7
2026/04/20 22:44:41.13,IMU,-157.71,-23.93,-1013.18,0.31,0.67,-1.42,0.00,8.70,-63.45,34.9
2026/04/20 22:44:41.23,IMU,-164.06,-26.86,-1006.84,0.77,-0.39,-0.02,-0.90,6.60,-63.60,34.7
2026/04/20 22:44:41.33,IMU,-166.99,-33.20,-1008.79,1.12,0.62,0.00,0.30,7.95,-63.45,34.9
2026/04/20 22:44:41.44,IMU,-159.18,-27.83,-1003.42,0.18,-1.46,0.76,0.30,7.95,-63.75,34.6
2026/04/20 22:44:41.54,IMU,-159.67,-19.04,-1005.86,-0.08,0.88,-0.17,-0.45,7.35,-63.30,35.1
2026/04/20 22:44:41.64,IMU,-165.04,-30.76,-1028.32,0.21,-0.74,0.25,-1.20,8.85,-63.60,34.7
2026/04/20 22:44:41.74,IMU,-144.53,-37.60,-1008.30,1.70,-1.06,-2.48,-0.30,7.50,-63.45,34.7
2026/04/20 22:44:41.84,IMU,-177.25,-21.00,-1019.04,0.13,0.79,0.87,0.45,6.90,-64.05,34.5
2026/04/20 22:44:41.94,IMU,-154.30,-25.39,-1016.60,0.08,0.92,-2.08,1.35,7.20,-63.75,34.9
2026/04/20 22:44:42.04,IMU,-168.95,-35.64,-1024.41,1.08,0.53,0.73,-1.05,7.20,-63.45,34.7
2026/04/20 22:44:42.14,IMU,-172.85,-28.81,-1016.60,0.60,-0.98,-3.16,0.30,7.50,-61.95,34.7
2026/04/20 22:44:42.24,IMU,-169.92,-29.30,-1012.21,-0.05,-0.60,-1.73,-0.90,8.40,-64.05,34.9
2026/04/20 22:44:42.34,IMU,-151.37,-23.44,-1013.18,0.60,0.38,-0.82,-1.05,6.45,-63.45,34.7
2026/04/20 22:44:42.44,IMU,-166.50,-29.30,-1017.09,0.61,-1.47,-0.94,-0.30,8.70,-64.20,34.7
2026/04/20 22:44:42.54,IMU,-166.02,-31.25,-1014.65,1.59,1.40,1.91,-0.30,9.45,-64.95,34.7
2026/04/20 22:44:42.64,IMU,-160.64,-20.51,-1018.55,0.45,0.86,-0.56,-0.90,8.40,-63.30,34.9
2026/04/20 22:44:42.74,IMU,-170.90,-13.67,-1019.04,0.55,0.79,-0.67,-0.15,8.10,-64.05,34.9
2026/04/20 22:44:42.85,IMU,-148.44,-25.88,-1028.32,0.89,-0.57,-1.78,0.15,7.35,-62.85,34.6
2026/04/20 22:44:42.95,IMU,-161.13,-25.39,-1013.67,0.04,-0.73,2.76,-0.15,6.15,-62.85,34.6
2026/04/20 22:44:43.05,IMU,-161.13,-26.86,-1011.23,-0.66,2.70,1.56,-2.10,7.50,-63.15,34.6
2026/04/20 22:44:43.15,IMU,-154.30,-26.86,-1020.02,-0.62,-0.85,-0.76,-0.15,8.85,-62.25,34.7
2026/04/20 22:44:43.25,IMU,-158.20,-24.90,-1016.60,-0.97,-2.01,0.48,0.90,6.90,-63.60,34.7
2026/04/20 22:44:43.35,IMU,-176.27,-23.44,-1020.51,-1.57,0.38,-1.33,-1.20,7.65,-63.30,34.5
2026/04/20 22:44:43.45,IMU,-164.06,-24.41,-1023.44,0.09,0.11,0.07,-0.30,7.50,-63.75,34.6
2026/04/20 22:44:43.55,IMU,-164.55,-31.74,-1004.39,-0.81,-1.92,1.48,-0.30,8.25,-63.45,34.9
2026/04/20 22:44:43.65,IMU,-147.95,-29.79,-1007.32,-1.16,1.31,-1.78,-1.95,5.85,-62.55,34.9
2026/04/20 22:44:43.75,IMU,-159.18,-24.90,-1012.21,0.50,0.73,1.43,0.45,8.85,-62.55,34.9
2026/04/20 22:44:43.85,IMU,-171.88,-24.41,-1022.46,1.94,0.01,0.30,-1.80,7.50,-61.65,34.9
2026/04/20 22:44:43.95,IMU,-168.95,-19.04,-1002.93,-1.38,1.53,-0.16,0.00,8.25,-64.20,34.9
2026/04/20 22:44:44.05,IMU,-159.67,-27.34,-1027.34,0.18,0.30,-1.01,-0.15,8.85,-63.30,34.9
2026/04/20 22:44:44.15,IMU,-166.50,-14.65,-1026.37,2.10,-1.93,0.20,-1.95,8.10,-62.55,34.7
2026/04/20 22:44:44.25,IMU,-171.39,-31.25,-1007.32,-1.56,-2.28,0.44,0.15,8.85,-63.60,34.9
2026/04/20 22:44:44.36,IMU,-162.60,-24.90,-1015.63,0.86,-1.04,-0.37,0.15,8.10,-64.65,34.7
2026/04/20 22:44:44.46,IMU,-154.79,-29.30,-1017.58,-2.07,-0.40,1.98,1.05,8.70,-63.15,35.1
2026/04/20 22:44:44.56,IMU,-172.85,-36.13,-1016.11,-0.85,-2.63,-0.11,-0.30,7.20,-63.15,34.6
2026/04/20 22:44:44.66,IMU,-160.16,-34.67,-1017.58,0.31,0.11,-1.50,-0.90,7.65,-64.05,34.9
2026/04/20 22:44:44.76,IMU,-181.15,-24.90,-1006.35,1.19,0.11,-0.25,-1.20,8.10,-63.30,35.2
2026/04/20 22:44:44.86,IMU,-166.02,-31.25,-1008.79,0.98,0.06,1.82,-4.20,6.15,-59.70,35.1
2026/04/20 22:44:44.96,IMU,-157.23,-23.93,-1006.35,-0.40,0.91,0.89,-0.60,8.70,-62.70,35.1
2026/04/20 22:44:45.06,IMU,-167.97,-26.37,-1012.21,-0.36,-0.72,-1.28,0.15,8.85,-64.65,34.9
2026/04/20 22:44:45.16,IMU,-173.34,-24.41,-1005.37,0.24,-2.56,-1.82,-0.45,6.60,-63.30,35.2
2026/04/20 22:44:45.26,IMU,-160.16,-30.27,-1023.93,1.56,2.27,-0.70,-0.15,7.65,-62.85,35.1
2026/04/20 22:44:45.36,IMU,-160.64,-25.88,-1025.39,0.42,0.31,-0.23,-0.90,8.10,-63.60,35.2
2026/04/20 22:44:45.46,IMU,-154.30,-33.69,-1012.70,1.17,0.61,-0.08,-1.20,8.40,-63.30,35.1
2026/04/20 22:44:45.56,IMU,-165.04,-20.51,-1014.65,-0.37,-2.10,-1.22,-0.15,9.30,-64.05,35.0
2026/04/20 22:44:45.66,IMU,-164.06,-24.41,-1000.98,-0.19,-0.54,1.34,0.00,9.00,-63.75,34.9
2026/04/20 22:44:45.77,IMU,-164.06,-27.83,-1005.37,0.12,0.47,-1.75,0.00,7.50,-63.15,35.1
2026/04/20 22:44:45.88,IMU,-167.48,-20.51,-1014.16,0.99,1.80,0.36,-1.65,5.40,-57.15,35.1
2026/04/20 22:44:45.98,IMU,-169.92,-30.27,-994.63,0.96,-0.19,-1.64,-0.30,7.50,-63.75,35.5
2026/04/20 22:44:46.08,IMU,-167.97,-23.44,-1004.39,0.15,0.02,1.12,-0.45,6.15,-63.30,35.2
2026/04/20 22:44:46.18,IMU,-157.71,-32.23,-1014.65,1.37,1.01,-0.72,0.60,7.50,-62.70,35.2
2026/04/20 22:44:46.28,IMU,-168.95,-24.90,-998.54,-1.42,0.60,1.50,-0.90,8.40,-62.85,35.2
2026/04/20 22:44:46.38,IMU,-163.57,-30.27,-1017.09,-0.34,1.85,-1.41,-0.15,9.30,-63.30,35.0
2026/04/20 22:44:46.48,IMU,-166.02,-26.86,-1017.58,-0.11,-0.77,1.64,0.60,7.95,-63.75,35.1
2026/04/20 22:44:46.58,IMU,-164.06,-28.81,-1020.51,-0.74,0.31,-1.66,-0.60,7.20,-63.75,35.2
2026/04/20 22:44:46.68,IMU,-166.50,-11.72,-1009.28,-0.65,-1.55,3.40,0.00,6.00,-63.45,35.2
2026/04/20 22:44:46.79,IMU,-170.41,-30.76,-1014.16,-1.52,-0.40,0.89,0.30,7.20,-63.15,35.6
2026/04/20 22:44:46.89,IMU,-168.46,-32.23,-1001.46,0.40,1.92,0.46,-0.45,7.65,-64.05,35.2
2026/04/20 22:44:47.00,IMU,-163.09,-30.27,-1004.39,0.72,0.75,-1.59,-1.20,6.60,-62.85,35.3
2026/04/20 22:44:47.10,IMU,-165.53,-10.25,-1016.11,0.29,-0.26,1.64,0.60,7.50,-64.20,35.1
2026/04/20 22:44:47.20,IMU,-146.97,-28.81,-1011.23,1.02,1.65,1.31,0.15,8.10,-65.10,35.2
2026/04/20 22:44:47.30,IMU,-172.36,-41.50,-1010.25,1.16,0.50,2.11,0.30,7.50,-63.15,35.2
2026/04/20 22:44:47.40,IMU,-175.29,-27.83,-1015.14,-0.02,1.36,0.56,-0.30,7.95,-64.50,35.0
2026/04/20 22:44:47.50,IMU,-166.99,-31.25,-1018.07,-0.34,1.00,-1.50,-0.60,7.95,-64.20,35.2
2026/04/20 22:44:47.60,IMU,-176.76,-17.58,-1011.23,-0.05,2.11,-1.31,-0.45,7.35,-62.85,35.4
2026/04/20 22:44:47.70,IMU,-158.69,-28.81,-1017.58,-0.84,-0.21,0.37,-0.90,8.10,-64.65,35.3
2026/04/20 22:44:47.80,IMU,-152.83,-28.32,-1006.35,1.60,0.37,0.17,-0.15,6.90,-63.30,35.8
2026/04/20 22:44:47.90,IMU,-163.09,-32.23,-1000.49,0.79,-1.15,-1.22,0.45,7.65,-63.30,35.6
2026/04/20 22:44:48.00,IMU,-164.06,-29.79,-1011.72,1.86,2.34,-0.25,0.00,8.70,-64.95,35.6
2026/04/20 22:44:48.10,IMU,-166.99,-29.79,-1000.98,-0.76,0.53,0.10,-0.15,7.65,-64.05,35.5
2026/04/20 22:44:48.20,IMU,-182.13,-36.62,-998.05,0.35,0.30,-1.89,-0.90,7.65,-63.60,34.9
2026/04/20 22:44:48.30,IMU,-171.88,-30.76,-1017.09,-2.43,0.72,-0.29,-0.60,7.95,-63.15,35.5
2026/04/20 22:44:48.40,IMU,-173.83,-22.46,-1007.81,0.51,2.63,0.29,-0.60,7.95,-63.45,35.2
2026/04/20 22:44:48.51,IMU,-159.18,-25.39,-1010.25,1.30,1.01,-2.36,-0.15,6.60,-63.60,35.2
2026/04/20 22:44:48.61,IMU,-159.18,-25.88,-1001.46,0.76,-0.90,0.40,-0.30,6.45,-61.95,35.5
2026/04/20 22:44:48.71,IMU,-164.55,-26.86,-1005.37,0.56,1.92,-0.31,-0.90,7.65,-63.60,35.6
2026/04/20 22:44:48.81,IMU,-156.74,-30.76,-997.07,-0.04,-1.27,-2.02,-0.30,8.25,-63.75,35.6
2026/04/20 22:44:48.91,IMU,-160.64,-40.04,-1005.86,0.09,0.14,2.92,-0.60,7.50,-63.15,35.6
2026/04/20 22:44:49.01,IMU,-173.34,-26.37,-998.05,1.00,-1.06,1.58,-0.45,6.90,-64.05,35.7
2026/04/20 22:44:49.11,IMU,-168.46,-30.76,-1017.58,-1.79,-0.19,1.89,-0.30,8.25,-63.15,35.6
2026/04/20 22:44:49.21,IMU,-169.92,-25.88,-1006.84,-1.10,1.47,0.20,-0.30,10.20,-63.75,35.6
2026/04/20 22:44:49.31,IMU,-172.36,-27.34,-1001.95,-0.35,-0.99,1.72,-1.35,6.00,-64.95,35.6
2026/04/20 22:44:49.41,IMU,-163.09,-26.37,-1005.86,0.45,-1.30,0.63,1.20,7.65,-62.85,35.9
2026/04/20 22:44:49.51,IMU,-160.16,-42.97,-1015.63,-0.26,-1.21,2.42,-0.60,6.75,-63.75,35.6
2026/04/20 22:44:49.61,IMU,-155.27,-21.97,-1012.21,0.69,2.59,-1.60,-0.30,7.20,-62.70,35.6
2026/04/20 22:44:49.71,IMU,-164.06,-31.25,-1006.84,-0.48,0.72,1.27,-0.60,8.70,-63.15,35.6
2026/04/20 22:44:49.81,IMU,-161.13,-18.55,-1022.46,-0.17,1.71,-2.23,0.00,9.00,-62.70,35.9
2026/04/20 22:44:49.92,IMU,-163.57,-10.74,-1004.39,0.45,0.61,1.46,-1.20,6.90,-63.30,35.7
2026/04/20 22:44:50.02,IMU,-169.92,-36.13,-1006.84,-0.57,2.25,-1.78,0.45,8.85,-64.35,35.9
2026/04/20 22:44:50.12,IMU,-171.39,-28.81,-1010.74,-0.91,2.14,0.66,0.30,7.50,-63.15,35.6
2026/04/20 22:44:50.22,IMU,-170.90,-29.79,-995.12,1.15,0.79,0.05,-0.90,8.40,-63.60,35.8
2026/04/20 22:44:50.32,IMU,-169.43,-27.34,-1025.39,1.98,-1.97,-0.03,-1.05,7.95,-61.65,35.8
2026/04/20 22:44:50.42,IMU,-140.63,-24.90,-1005.86,0.40,2.24,1.76,0.15,7.65,-64.05,35.9
2026/04/20 22:44:50.52,IMU,-164.55,-15.14,-1019.53,-1.01,-0.25,-0.89,0.15,7.65,-65.10,35.7
2026/04/20 22:44:50.62,IMU,-158.20,-32.71,-1010.74,-2.41,-0.38,-0.06,-0.90,6.90,-62.85,35.6
2026/04/20 22:44:50.72,IMU,-156.25,-35.16,-1012.21,0.21,-2.40,-0.47,0.00,7.20,-63.45,35.6
2026/04/20 22:44:50.82,IMU,-166.50,-25.88,-1014.16,2.00,-1.02,-0.27,-1.05,6.75,-63.75,36.0
2026/04/20 22:44:50.92,IMU,-166.02,-26.86,-1018.55,-0.08,-0.24,1.56,-1.35,7.95,-64.20,35.9
2026/04/20 22:44:51.02,IMU,-166.50,-27.83,-1012.70,0.08,-0.95,1.02,0.00,8.70,-63.45,36.0
2026/04/20 22:44:51.12,IMU,-173.83,-13.18,-1000.98,-0.61,-0.27,-0.61,-0.90,6.90,-63.60,35.9
2026/04/20 22:44:51.22,IMU,-168.95,-14.65,-1011.23,-0.42,0.73,0.66,-0.15,7.65,-63.60,35.9
2026/04/20 22:44:51.32,IMU,-176.27,-23.93,-1016.60,0.69,0.18,1.53,0.00,7.50,-63.75,36.1
2026/04/20 22:44:51.43,IMU,-172.85,-27.34,-1010.25,0.89,-1.74,-0.06,-1.65,8.10,-63.60,35.8
2026/04/20 22:44:51.53,IMU,-171.39,-25.39,-1006.84,-0.08,1.85,-0.54,-1.20,7.35,-62.55,35.7
2026/04/20 22:44:51.63,IMU,-167.97,-24.41,-1008.79,1.66,-2.10,-0.89,-0.15,8.40,-64.35,35.9
2026/04/20 22:44:51.73,IMU,-172.36,-22.46,-1015.63,0.11,1.44,2.00,-0.45,7.65,-64.05,36.2
2026/04/20 22:44:51.83,IMU,-158.69,-25.39,-1008.30,0.62,1.32,0.44,-0.30,8.25,-63.45,35.9
2026/04/20 22:44:51.93,IMU,-170.90,-26.37,-1008.79,0.04,0.54,-1.87,0.15,8.10,-61.80,35.9
2026/04/20 22:44:52.03,IMU,-171.39,-30.27,-1017.09,-0.18,-0.05,-1.00,-2.25,5.85,-60.00,36.0
2026/04/20 22:44:52.13,IMU,-168.46,-14.65,-1005.37,-0.80,-1.73,-0.47,0.30,8.25,-63.15,36.0
2026/04/20 22:44:52.23,IMU,-176.27,-30.76,-1001.95,0.70,-0.82,-1.12,2.55,7.20,-63.75,36.2
2026/04/20 22:44:52.33,IMU,-168.95,-33.20,-1018.07,0.82,0.65,2.87,-0.15,6.60,-62.25,36.1
2026/04/20 22:44:52.43,IMU,-150.88,-26.86,-1010.25,-0.54,2.34,-0.47,-1.05,8.70,-61.65,35.9
2026/04/20 22:44:52.53,IMU,-157.71,-20.02,-998.05,-1.46,0.69,-2.26,-1.05,7.20,-61.95,35.9
2026/04/20 22:44:52.63,IMU,-162.60,-21.48,-1009.77,-0.59,0.09,1.43,-0.90,7.65,-62.25,36.1
2026/04/20 22:44:52.73,IMU,-154.79,-29.79,-1017.09,1.82,0.15,0.05,0.90,6.60,-62.25,36.3
2026/04/20 22:44:52.84,IMU,-167.97,-28.32,-1000.00,0.11,-2.26,-0.89,0.00,7.50,-64.20,36.1
2026/04/20 22:44:52.94,IMU,-176.27,-23.44,-1024.41,0.82,0.48,-0.84,-0.15,7.35,-63.30,36.3
2026/04/20 22:44:53.04,IMU,-160.16,-16.11,-1010.25,0.76,1.19,0.51,-0.90,6.90,-62.85,35.9
2026/04/20 22:44:53.14,IMU,-173.83,-34.18,-1015.14,-0.89,-0.08,2.57,0.15,6.90,-63.30,36.0
2026/04/20 22:44:53.24,IMU,-168.95,-24.41,-1014.65,-1.24,-1.24,0.37,-0.15,7.65,-63.30,36.1
2026/04/20 22:44:53.34,IMU,-172.36,-35.64,-1008.79,1.24,-1.12,-1.95,-0.60,7.95,-63.45,36.1
2026/04/20 22:44:53.44,IMU,-163.09,-25.88,-1002.44,-1.99,-0.21,0.01,0.60,7.95,-63.45,36.1
2026/04/20 22:44:53.54,IMU,-170.41,-12.70,-1003.91,-0.73,1.54,-0.01,0.30,9.45,-62.70,36.3
2026/04/20 22:44:53.64,IMU,-167.48,-27.34,-1010.74,-0.50,-1.52,-1.93,0.15,6.90,-64.05,36.2
2026/04/20 22:44:53.74,IMU,-167.48,-22.95,-1000.98,-1.54,1.30,-0.35,2.10,7.95,-63.75,36.1
2026/04/20 22:44:53.85,IMU,-166.50,-36.62,-1009.77,-0.85,-1.03,-0.64,-1.05,8.25,-63.15,36.1
2026/04/20 22:44:53.95,IMU,-159.67,-15.14,-1021.97,-0.03,-0.74,1.47,-0.45,6.90,-64.05,36.1
2026/04/20 22:44:54.05,IMU,-178.71,-19.04,-1010.74,1.47,-0.24,1.56,-1.20,7.35,-63.30,36.1
2026/04/20 22:44:54.15,IMU,-172.36,-21.00,-1026.37,-0.29,0.47,0.98,0.45,8.10,-61.80,36.3
2026/04/20 22:44:54.25,IMU,-156.74,-32.23,-1003.91,-0.09,0.63,-1.75,-0.60,7.95,-63.15,36.3
2026/04/20 22:44:54.35,IMU,-164.55,-16.11,-1012.70,-0.84,0.84,-0.95,-0.45,6.90,-62.25,36.2
2026/04/20 22:44:54.45,IMU,-167.97,-27.83,-1011.23,3.50,-0.50,1.04,-1.35,7.20,-63.45,36.3
2026/04/20 22:44:54.55,IMU,-170.90,-21.00,-1007.81,-0.88,-1.34,0.11,-1.05,7.95,-61.95,35.9
2026/04/20 22:44:54.65,IMU,-168.46,-37.11,-997.56,-0.12,1.55,-0.69,-0.30,8.70,-63.15,36.3
2026/04/20 22:44:54.75,IMU,-161.13,-30.76,-1024.90,-0.77,0.64,1.22,0.90,7.35,-64.05,36.5
2026/04/20 22:44:54.85,IMU,-174.32,-26.86,-999.51,0.83,1.00,0.31,-1.35,7.20,-63.45,36.4
2026/04/20 22:44:54.97,IMU,-163.09,-25.39,-1020.51,-0.05,2.00,0.68,-0.45,9.60,-62.55,36.3
2026/04/20 22:44:55.07,IMU,-151.37,-25.39,-1004.88,0.30,0.83,1.09,0.15,6.90,-62.25,36.1
2026/04/20 22:44:55.17,IMU,-168.46,-17.09,-1014.65,-0.45,0.62,0.27,-1.05,7.95,-61.65,36.2
2026/04/20 22:44:55.27,IMU,-156.25,-37.11,-1013.67,1.47,-1.82,1.64,0.00,7.20,-64.50,36.2
2026/04/20 22:44:55.37,IMU,-171.88,-7.81,-1018.07,-2.08,-1.61,-1.33,-0.60,8.25,-62.70,36.5
2026/04/20 22:44:55.47,IMU,-159.67,-31.25,-1009.77,0.01,-2.47,0.24,-0.45,6.90,-62.25,36.2
2026/04/20 22:44:55.57,IMU,-152.34,-35.16,-1012.21,1.05,0.68,-0.44,-0.15,8.85,-61.80,36.2
2026/04/20 22:44:55.67,IMU,-169.43,-19.04,-1019.53,-0.02,0.92,0.58,0.15,6.60,-62.85,36.3
2026/04/20 22:44:55.77,IMU,-163.09,-24.90,-996.09,-1.69,-0.04,0.44,-0.90,8.10,-62.85,36.3
2026/04/20 22:44:55.87,IMU,-150.39,-27.83,-1003.42,-1.05,1.50,-1.99,-0.60,7.50,-62.70,36.3
2026/04/20 22:44:55.97,IMU,-163.57,-14.16,-1010.74,0.80,2.23,2.04,-0.60,8.25,-63.15,36.2
2026/04/20 22:44:56.07,IMU,-168.95,-36.13,-1017.09,-0.99,1.15,-0.85,0.15,9.60,-63.60,36.3
2026/04/20 22:44:56.17,IMU,-177.25,-27.83,-1026.37,-0.48,0.04,-1.86,0.30,8.70,-61.95,36.2
2026/04/20 22:44:56.27,IMU,-160.64,-23.93,-1009.77,0.71,-0.80,-0.11,-0.30,7.20,-63.75,36.1
2026/04/20 22:44:56.38,IMU,-166.99,-24.90,-1011.72,0.38,2.74,1.07,-0.45,8.40,-64.35,36.4
2026/04/20 22:44:56.48,IMU,-163.09,-32.71,-1016.11,1.41,-0.10,-2.44,0.15,8.10,-62.85,36.3
2026/04/20 22:44:56.58,IMU,-174.80,-27.83,-1013.67,0.07,1.38,-2.67,0.15,6.60,-62.85,36.2
2026/04/20 22:44:56.68,IMU,-157.23,-24.41,-996.58,-0.34,0.27,-1.66,-1.80,6.45,-63.15,36.5
2026/04/20 22:44:56.78,IMU,-175.29,-13.18,-1006.84,-0.51,-0.12,1.37,-0.45,6.15,-64.05,36.3
2026/04/20 22:44:56.88,IMU,-179.20,-38.57,-1028.32,-1.38,1.70,-2.49,0.30,8.25,-62.40,36.4
2026/04/20 22:44:56.98,IMU,-169.92,-17.09,-1025.39,-0.84,-0.14,-2.13,-0.45,7.35,-62.85,36.2
2026/04/20 22:44:57.08,IMU,-167.48,-25.39,-1013.67,-0.29,-0.39,0.02,0.15,8.10,-62.85,36.5
2026/04/20 22:44:57.18,IMU,-169.92,-26.37,-1007.81,-0.92,0.07,-0.66,0.15,5.85,-62.25,36.1
2026/04/20 22:44:57.28,IMU,-168.95,-24.41,-1009.77,0.59,1.08,3.92,0.30,6.75,-63.45,36.5
2026/04/20 22:44:57.38,IMU,-160.64,-33.20,-1008.79,-0.94,-2.21,0.22,1.35,6.75,-63.15,36.2
2026/04/20 22:44:57.48,IMU,-164.55,-21.97,-1005.86,0.78,-2.22,-1.77,0.00,7.50,-63.75,36.3
2026/04/20 22:44:57.58,IMU,-169.92,-13.67,-1021.97,2.05,-0.34,-3.49,-1.20,8.85,-62.85,36.5
2026/04/20 22:44:57.68,IMU,-159.18,-24.90,-1006.35,0.63,-1.16,0.59,-0.30,8.25,-63.45,36.5
2026/04/20 22:44:57.79,IMU,-162.11,-39.06,-1006.35,-0.24,-2.73,-0.74,0.45,6.90,-62.25,36.3
2026/04/20 22:44:57.89,IMU,-164.55,-35.64,-1012.21,-1.56,0.95,0.67,-0.60,7.95,-63.15,36.5
2026/04/20 22:44:57.99,IMU,-163.09,-25.88,-1024.41,0.83,0.63,2.18,0.30,7.95,-64.95,36.1
2026/04/20 22:44:58.09,IMU,-162.60,-21.00,-1023.44,-1.04,1.92,-1.52,-0.60,6.00,-63.75,36.5
2026/04/20 22:44:58.19,IMU,-166.02,-25.39,-1012.70,0.82,-1.10,-1.33,-0.15,7.65,-62.55,36.3
2026/04/20 22:44:58.29,IMU,-177.25,-28.32,-1006.84,-2.60,0.78,-0.87,-0.60,7.95,-64.20,36.2
2026/04/20 22:44:58.39,IMU,-169.43,-27.83,-1012.70,0.88,0.40,0.11,-0.90,8.10,-63.60,36.2
2026/04/20 22:44:58.49,IMU,-166.99,-29.79,-1009.77,-0.65,-1.02,-0.54,-1.80,8.25,-63.15,36.5
2026/04/20 22:44:58.59,IMU,-156.25,-21.00,-1017.09,-0.04,1.67,0.61,-1.80,8.25,-63.45,36.3
2026/04/20 22:44:58.69,IMU,-162.60,-26.86,-998.54,0.47,-0.07,-0.78,-0.30,7.50,-64.20,36.3
2026/04/20 22:44:58.79,IMU,-173.83,-40.53,-999.51,-0.68,-0.37,0.72,-0.30,7.50,-63.75,36.2
2026/04/20 22:44:58.89,IMU,-159.67,-12.70,-1010.74,-0.11,-0.52,0.96,-0.15,9.30,-62.85,36.2
2026/04/20 22:44:58.99,IMU,-163.09,-25.39,-1015.63,0.10,-1.34,1.15,-0.15,7.35,-62.55,36.5
2026/04/20 22:44:59.09,IMU,-157.23,-27.83,-996.58,1.17,0.44,3.54,-1.80,7.95,-63.45,36.3
2026/04/20 22:44:59.20,IMU,-165.04,-16.60,-1017.58,0.01,0.80,-0.37,-3.90,7.20,-60.15,36.5
2026/04/20 22:44:59.30,IMU,-176.76,-24.90,-1003.42,0.05,1.16,0.10,-0.90,6.60,-61.80,36.4
2026/04/20 22:44:59.40,IMU,-165.04,-35.16,-1010.25,0.25,3.65,0.94,-0.90,7.35,-64.05,36.3
2026/04/20 22:44:59.50,IMU,-162.60,-35.64,-1003.42,-1.47,1.99,-2.20,-0.30,7.20,-62.40,36.5
2026/04/20 22:44:59.60,IMU,-158.20,-25.39,-1017.58,0.47,0.12,0.74,-1.95,6.90,-63.60,36.5
2026/04/20 22:44:59.70,IMU,-169.43,-27.34,-1015.63,0.04,-1.17,-0.66,-1.20,7.65,-62.55,36.5
2026/04/20 22:44:59.80,IMU,-168.46,-28.81,-1008.30,1.11,1.71,-0.08,0.90,7.65,-63.30,36.4
2026/04/20 22:44:59.90,IMU,-178.71,-22.46,-1003.42,0.12,-1.90,-0.13,-0.45,7.35,-62.85,36.2
2026/04/20 22:45:00.00,IMU,-165.53,-32.71,-1019.04,-0.25,-0.48,-0.24,-0.15,7.35,-62.85,36.3
2026/04/20 22:45:00.11,IMU,-167.48,-32.71,-1019.53,1.15,-2.63,2.47,0.15,8.85,-62.55,36.3
2026/04/20 22:45:00.21,IMU,-172.36,-29.30,-1011.23,1.17,-2.34,0.15,-4.20,5.10,-57.90,36.6
2026/04/20 22:45:00.31,IMU,-181.64,-26.37,-1007.81,-1.08,0.47,1.05,-0.45,7.65,-64.35,36.5
2026/04/20 22:45:00.41,IMU,-178.22,-29.30,-1023.44,0.90,0.91,-0.19,0.00,8.25,-63.15,36.4
2026/04/20 22:45:00.51,IMU,-165.04,-27.83,-1012.70,-0.31,1.42,-0.87,-0.30,7.95,-63.75,36.6
2026/04/20 22:45:00.61,IMU,-174.32,-25.88,-1008.30,0.25,-0.04,0.77,0.15,6.90,-62.55,36.4
2026/04/20 22:45:00.71,IMU,-159.67,-29.30,-1023.93,-0.17,-1.37,-1.00,-0.45,6.60,-64.35,36.6
2026/04/20 22:45:00.81,IMU,-180.18,-23.44,-1022.46,0.40,-1.29,1.60,-0.30,6.75,-62.70,36.5
2026/04/20 22:45:00.92,IMU,-169.43,-30.76,-1021.00,0.27,0.59,1.51,-0.15,4.35,-59.70,36.7
2026/04/20 22:45:01.02,IMU,-175.78,-32.23,-1018.07,-0.15,-2.31,0.03,-1.05,7.95,-63.15,36.7
2026/04/20 22:45:01.12,IMU,-157.23,-23.44,-1021.48,0.52,0.63,-1.65,0.45,7.65,-62.85,36.5
2026/04/20 22:45:01.23,IMU,-157.23,-21.97,-1018.55,-0.60,-0.21,0.40,-3.75,6.15,-58.65,36.5
2026/04/20 22:45:01.33,IMU,-168.95,-31.74,-1016.11,-0.42,-1.75,-0.61,0.45,8.10,-62.25,36.4
2026/04/20 22:45:01.43,IMU,-169.92,-20.02,-1013.18,0.10,-0.81,-2.85,1.20,7.35,-62.85,36.6
2026/04/20 22:45:01.53,IMU,-180.18,-34.18,-1010.25,-0.78,0.53,-3.10,-0.60,7.95,-63.45,36.5
2026/04/20 22:45:01.63,IMU,-179.20,-25.39,-1015.63,-0.48,0.64,-0.96,0.90,6.60,-62.55,36.6
2026/04/20 22:45:01.73,IMU,-159.67,-31.25,-1019.04,0.32,-0.89,1.82,-0.45,7.65,-63.60,36.7
2026/04/20 22:45:01.83,IMU,-161.13,-16.11,-1024.41,1.72,-0.45,-0.72,-0.15,6.90,-63.30,36.5
2026/04/20 22:45:01.93,IMU,-153.32,-25.39,-1025.88,0.33,-0.55,-1.52,-1.35,7.50,-62.70,36.5
2026/04/20 22:45:02.03,IMU,-179.20,-24.41,-1017.58,-1.47,0.66,-1.92,-0.90,7.35,-63.60,36.5
2026/04/20 22:45:02.13,IMU,-162.11,-31.74,-1013.18,0.20,0.05,0.02,-1.05,7.95,-63.45,36.5
2026/04/20 22:45:02.23,IMU,-173.34,-22.95,-1012.21,0.56,0.02,-0.79,-0.60,7.95,-61.95,36.7
2026/04/20 22:45:02.34,IMU,-173.83,-31.74,-1015.63,0.60,1.98,-1.18,-0.60,7.95,-63.45,36.5
2026/04/20 22:45:02.44,IMU,-179.69,-37.11,-1019.53,0.37,1.72,-0.50,-0.45,8.85,-62.85,36.5
2026/04/20 22:45:02.54,IMU,-164.06,-41.50,-1021.00,0.05,-0.01,-0.05,-0.90,6.90,-61.50,36.6
2026/04/20 22:45:02.64,IMU,-168.46,-27.34,-1018.07,1.84,-0.52,0.45,0.15,6.90,-63.60,36.2
2026/04/20 22:45:02.74,IMU,-172.36,-29.79,-1011.72,0.56,-2.58,-2.04,-0.45,8.40,-63.30,36.7
2026/04/20 22:45:02.84,IMU,-170.41,-24.90,-997.07,0.58,1.68,-0.08,0.45,9.60,-63.30,36.7
2026/04/20 22:45:02.94,IMU,-166.02,-35.64,-1002.93,1.37,-1.32,1.92,0.90,6.15,-63.30,36.6
2026/04/20 22:45:03.04,IMU,-165.53,-18.55,-1014.65,-0.53,-1.65,-0.02,-0.90,7.35,-64.05,36.3
2026/04/20 22:45:03.14,IMU,-163.57,-29.30,-1014.65,1.91,-1.69,1.18,-0.15,9.60,-64.65,36.7
2026/04/20 22:45:03.25,IMU,-174.80,-24.90,-1021.48,-0.47,2.31,-2.04,-1.05,6.45,-62.40,36.8
2026/04/20 22:45:03.35,IMU,-160.64,-25.39,-1022.46,-1.57,0.44,-2.73,0.00,6.45,-63.75,36.7
2026/04/20 22:45:03.45,IMU,-185.55,-22.95,-1014.16,-0.89,0.27,2.11,0.00,7.50,-62.70,36.4
2026/04/20 22:45:03.55,IMU,-161.62,-26.37,-1004.88,-1.24,1.05,-1.73,-0.45,7.65,-62.25,36.8
2026/04/20 22:45:03.65,IMU,-174.80,-28.32,-1017.09,1.00,2.95,-0.24,-0.15,6.60,-62.25,36.8
2026/04/20 22:45:03.75,IMU,-153.32,-37.11,-1016.60,0.36,2.88,-0.56,-1.20,7.65,-63.30,36.6
2026/04/20 22:45:03.85,IMU,-168.46,-22.95,-1015.14,-1.64,-1.48,0.84,-0.30,7.95,-63.15,36.8
2026/04/20 22:45:03.95,IMU,-166.50,-36.13,-1015.63,0.41,2.15,-1.34,0.30,7.50,-62.70,36.8
2026/04/20 22:45:04.05,IMU,-174.80,-22.95,-1022.46,-1.82,0.10,-1.43,-0.15,8.10,-63.30,36.8
2026/04/20 22:45:04.15,IMU,-160.64,-19.53,-1009.77,0.20,2.16,2.05,0.30,7.20,-63.75,36.5
2026/04/20 22:45:04.25,IMU,-173.83,-18.07,-1007.81,-0.30,1.55,-2.18,-3.00,7.65,-62.25,36.7
2026/04/20 22:45:04.35,IMU,-170.41,-27.34,-1011.72,-0.05,-1.67,0.70,-1.20,7.35,-63.60,36.8
2026/04/20 22:45:04.45,IMU,-158.20,-24.41,-1019.53,0.48,-0.28,0.96,1.20,8.10,-64.35,36.8
2026/04/20 22:45:04.56,IMU,-169.92,-25.39,-1011.72,1.22,1.66,-0.48,0.60,7.50,-63.45,36.8
2026/04/20 22:45:04.66,IMU,-163.09,-28.81,-1012.70,0.70,1.15,0.75,0.45,7.35,-62.25,36.8
2026/04/20 22:45:04.76,IMU,-163.57,-21.00,-1017.09,-1.86,-0.82,-1.27,0.45,8.85,-63.60,36.7
2026/04/20 22:45:04.86,IMU,-177.25,-30.27,-1016.60,0.44,-0.76,-2.07,0.15,9.30,-63.30,36.8
2026/04/20 22:45:04.96,IMU,-163.57,-35.64,-996.58,1.58,1.51,1.60,-0.15,6.90,-64.35,36.8
2026/04/20 22:45:05.06,IMU,-170.41,-33.20,-1016.60,0.76,-0.45,-1.21,-1.65,7.65,-63.60,36.8
2026/04/20 22:45:05.16,IMU,-169.92,-37.11,-1018.55,0.37,0.77,0.33,-0.45,9.30,-62.55,36.8
2026/04/20 22:45:05.26,IMU,-174.80,-21.00,-1019.53,1.76,0.04,-2.08,-0.45,8.10,-60.45,36.9
2026/04/20 22:45:05.36,IMU,-170.41,-29.30,-1008.30,-0.60,-0.38,-2.67,1.05,6.75,-62.70,37.0
2026/04/20 22:45:05.46,IMU,-159.18,-8.79,-1000.98,0.14,1.43,1.27,-1.65,6.90,-63.60,36.9
2026/04/20 22:45:05.56,IMU,-158.20,-22.95,-1006.35,0.21,-1.92,0.24,-1.05,8.25,-63.75,36.9
2026/04/20 22:45:05.66,IMU,-170.90,-23.93,-1017.09,-0.02,1.37,1.18,-0.15,8.10,-63.30,36.8
2026/04/20 22:45:05.76,IMU,-154.79,-27.83,-1010.25,-2.22,1.47,1.08,0.60,7.95,-62.70,37.0
2026/04/20 22:45:05.87,IMU,-166.02,-26.86,-1023.93,0.11,-0.37,-0.23,0.45,6.90,-63.60,37.3
2026/04/20 22:45:05.97,IMU,-177.25,-36.62,-1019.53,0.18,-0.44,-1.56,-0.30,8.25,-63.45,37.1
2026/04/20 22:45:06.07,IMU,-175.29,-24.41,-1023.93,0.53,0.02,1.30,-1.65,6.90,-63.60,36.9
2026/04/20 22:45:06.17,IMU,-183.59,-50.78,-1020.02,-0.51,0.60,-0.59,0.15,7.65,-62.85,36.8
2026/04/20 22:45:06.27,IMU,-180.18,-31.25,-1013.18,0.18,1.34,-0.76,-1.35,8.25,-63.45,36.8
2026/04/20 22:45:06.37,IMU,-172.36,-28.81,-1031.74,1.08,0.44,-1.87,0.30,8.70,-62.40,36.9
2026/04/20 22:45:06.47,IMU,-167.48,-34.67,-997.07,1.52,-0.11,-3.33,-1.05,8.25,-64.20,37.0
2026/04/20 22:45:06.57,IMU,-168.46,-46.88,-1016.60,-0.52,-1.15,-0.24,-0.15,6.90,-62.55,37.2
2026/04/20 22:45:06.67,IMU,-175.78,-20.51,-1023.44,-1.69,-0.53,0.85,0.15,6.90,-64.05,36.9
2026/04/20 22:45:06.77,IMU,-164.06,-24.90,-1012.21,-0.60,-0.32,-1.40,1.20,8.85,-62.25,36.9
2026/04/20 22:45:06.87,IMU,-173.34,-32.23,-1021.97,1.16,-0.15,-2.60,0.00,7.95,-62.70,37.4
2026/04/20 22:45:06.97,IMU,-160.16,-21.00,-1021.00,0.67,-0.68,-2.52,0.90,8.10,-63.30,37.1
2026/04/20 22:45:07.07,IMU,-169.92,-29.30,-1019.53,0.62,0.54,-0.08,-0.60,7.50,-63.15,36.8
2026/04/20 22:45:07.17,IMU,-171.39,-28.81,-1012.21,-1.86,0.97,0.65,-0.15,6.90,-63.30,36.8
2026/04/20 22:45:07.28,IMU,-162.11,-18.55,-1014.65,0.56,0.52,0.65,-0.45,8.85,-62.85,37.2
2026/04/20 22:45:07.38,IMU,-171.88,-38.09,-1017.58,0.03,0.18,0.35,-3.30,5.55,-58.80,37.2
2026/04/20 22:45:07.48,IMU,-173.83,-34.67,-1006.35,0.35,-0.59,-0.13,-0.30,8.70,-63.45,37.3
2026/04/20 22:45:07.58,IMU,-172.36,-23.93,-1008.30,2.59,-0.36,-0.53,0.00,6.45,-63.75,37.3
2026/04/20 22:45:07.68,IMU,-176.27,-34.67,-1012.21,0.16,-0.92,0.79,-1.05,7.95,-62.40,36.8
2026/04/20 22:45:07.78,IMU,-150.39,-28.32,-1004.88,1.56,-0.69,-0.63,0.60,6.75,-62.40,37.0
2026/04/20 22:45:07.88,IMU,-166.50,-20.51,-1013.67,0.41,1.94,-0.28,-1.65,7.65,-63.30,37.2
2026/04/20 22:45:07.98,IMU,-171.88,-32.23,-1015.14,0.55,-0.44,-0.25,0.30,8.25,-63.45,36.9
2026/04/20 22:45:08.08,IMU,-165.53,-21.00,-1005.37,0.36,1.67,-1.24,0.15,7.35,-61.80,37.0
2026/04/20 22:45:08.18,IMU,-159.67,-21.00,-997.56,1.96,0.89,-0.44,-0.30,7.20,-63.15,36.8
2026/04/20 22:45:08.28,IMU,-185.55,-22.95,-1008.30,-0.02,1.06,-0.61,-0.45,7.65,-61.80,36.9
2026/04/20 22:45:08.39,IMU,-168.46,-23.44,-1004.39,-1.22,3.41,1.37,-3.45,6.15,-60.45,37.0
2026/04/20 22:45:08.49,IMU,-172.85,-27.34,-1020.02,0.40,0.93,-0.85,-1.05,6.75,-60.90,37.3
2026/04/20 22:45:08.59,IMU,-165.04,-33.69,-998.54,-0.55,-0.15,2.29,-0.30,7.50,-63.15,37.3
2026/04/20 22:45:08.69,IMU,-167.48,-26.37,-1016.11,-2.54,0.87,-0.66,-0.45,6.90,-62.55,37.3
2026/04/20 22:45:08.79,IMU,-164.06,-22.95,-1002.44,1.37,0.45,1.48,0.00,8.25,-62.40,37.4
2026/04/20 22:45:08.90,IMU,-166.02,-18.55,-1005.86,-2.34,-0.04,0.01,0.30,7.50,-63.45,37.3
2026/04/20 22:45:09.00,IMU,-164.55,-23.93,-1016.60,0.72,1.46,0.87,-0.15,7.65,-62.55,37.4
2026/04/20 22:45:09.10,IMU,-160.64,-19.04,-1005.37,1.05,0.05,-0.21,-0.45,7.65,-62.85,37.4
2026/04/20 22:45:09.20,IMU,-159.18,-39.06,-1014.65,0.66,-0.63,-1.52,0.15,6.90,-61.05,37.3
2026/04/20 22:45:09.30,IMU,-172.85,-19.04,-1014.65,1.95,-0.49,0.87,-0.15,6.90,-62.25,37.2
2026/04/20 22:45:09.41,IMU,-170.41,-31.25,-1013.67,0.19,1.69,-0.92,-2.70,4.35,-57.45,37.2
2026/04/20 22:45:09.51,IMU,-163.57,-37.60,-1013.18,-0.98,-0.08,-2.63,-0.15,8.85,-63.30,37.3
2026/04/20 22:45:09.61,IMU,-167.97,-29.30,-1005.37,-0.64,-0.53,-1.10,-1.05,6.45,-63.15,37.4
2026/04/20 22:45:09.72,IMU,-170.41,-32.71,-1009.77,-0.38,2.54,0.78,-1.05,8.25,-62.70,37.1
2026/04/20 22:45:09.82,IMU,-167.48,-31.25,-1015.14,0.17,0.02,-0.47,-0.15,7.65,-63.30,37.4
2026/04/20 22:45:09.92,IMU,-165.53,-26.86,-1013.18,-1.84,-0.10,-1.52,1.20,7.35,-62.55,37.3
2026/04/20 22:45:10.02,IMU,-160.16,-28.81,-1016.11,-1.26,0.82,2.47,0.00,7.20,-61.95,37.4
2026/04/20 22:45:10.12,IMU,-170.41,-26.86,-1005.86,1.91,-1.06,-1.83,0.00,7.50,-61.65,37.3
2026/04/20 22:45:10.22,IMU,-179.20,-23.93,-1014.65,-1.98,2.00,0.29,-1.20,8.40,-63.30,37.3
2026/04/20 22:45:10.32,IMU,-160.64,-23.44,-1007.32,-1.39,-1.22,0.52,-0.15,7.65,-62.55,37.4
2026/04/20 22:45:10.42,IMU,-166.02,-25.88,-1019.53,1.56,0.90,-0.39,0.45,6.90,-62.55,37.3
2026/04/20 22:45:10.52,IMU,-166.99,-21.97,-1005.86,-0.87,1.04,2.66,-0.90,7.65,-62.55,37.3
2026/04/20 22:45:10.62,IMU,-168.95,-12.70,-1016.11,0.91,-0.73,-2.84,-1.95,8.85,-65.10,37.0
2026/04/20 22:45:10.72,IMU,-167.97,-32.23,-1021.48,-1.07,-0.81,0.68,1.20,8.10,-62.25,36.8
2026/04/20 22:45:10.82,IMU,-150.88,-18.55,-1013.67,-0.82,-0.85,0.79,0.15,8.40,-63.60,37.3
2026/04/20 22:45:10.92,IMU,-160.64,-16.60,-1014.65,0.77,2.99,-1.09,-3.60,7.20,-58.05,37.1
2026/04/20 22:45:11.03,IMU,-172.36,-14.65,-1008.79,0.40,2.40,0.30,0.30,7.95,-62.70,37.0
2026/04/20 22:45:11.13,IMU,-179.69,-23.93,-1013.18,1.47,1.80,1.75,-0.60,7.50,-61.35,37.2
2026/04/20 22:45:11.23,IMU,-174.32,-32.23,-1015.63,-0.53,0.01,-1.36,0.15,8.10,-63.60,37.3
2026/04/20 22:45:11.33,IMU,-176.27,-26.37,-995.61,-0.14,0.82,-2.53,0.45,6.60,-62.25,37.2
2026/04/20 22:45:11.43,IMU,-176.27,-32.71,-1019.04,-0.38,-0.53,-0.05,0.00,7.95,-63.15,37.3
2026/04/20 22:45:11.53,IMU,-160.16,-21.00,-1013.67,0.03,1.90,-0.63,-1.05,7.20,-63.15,37.0
2026/04/20 22:45:11.63,IMU,-163.09,-16.11,-1025.39,-0.53,0.16,-1.70,-0.90,6.90,-62.85,37.5
2026/04/20 22:45:11.73,IMU,-166.02,-7.32,-1011.72,0.60,-0.57,-1.20,0.15,6.90,-63.60,37.2
2026/04/20 22:45:11.83,IMU,-175.78,-26.37,-1016.60,-1.63,-1.31,-1.03,0.45,7.35,-64.05,37.5
2026/04/20 22:45:11.94,IMU,-155.27,-13.18,-1017.09,-0.79,-1.57,0.69,-0.15,7.65,-63.60,37.3
2026/04/20 22:45:12.04,IMU,-169.92,-28.32,-1011.23,0.80,-1.36,-0.26,-0.60,7.20,-63.45,37.2
2026/04/20 22:45:12.14,IMU,-167.97,-26.86,-1021.00,-0.12,-1.26,-0.05,-0.60,7.50,-62.40,37.2
2026/04/20 22:45:12.24,IMU,-169.92,-23.93,-1016.11,0.70,0.75,2.60,0.60,8.25,-63.75,37.3
2026/04/20 22:45:12.34,IMU,-169.92,-24.41,-1012.70,-0.37,0.85,0.21,-0.30,7.95,-64.95,37.2
2026/04/20 22:45:12.44,IMU,-175.29,-38.09,-1032.71,1.77,-1.21,0.96,0.60,8.70,-63.45,37.3
2026/04/20 22:45:12.54,IMU,-169.43,-14.16,-1023.44,2.73,2.34,0.17,-2.25,7.65,-62.25,37.0
2026/04/20 22:45:12.65,IMU,-161.62,-31.25,-1025.39,0.27,-1.38,-0.99,-0.15,7.35,-62.55,37.0
2026/04/20 22:45:12.75,IMU,-171.88,-27.83,-1031.25,0.15,-1.06,0.38,-0.15,6.60,-62.55,36.9
2026/04/20 22:45:12.85,IMU,-169.92,-33.20,-1020.51,-0.58,-1.28,1.92,0.30,7.50,-62.70,37.2
2026/04/20 22:45:12.95,IMU,-164.55,-30.27,-1022.46,1.11,-0.27,-0.02,0.30,8.70,-62.70,36.9
2026/04/20 22:45:13.05,IMU,-169.92,-25.39,-999.51,-0.56,0.55,-1.08,-1.20,7.35,-62.85,37.1
2026/04/20 22:45:13.15,IMU,-171.39,-27.83,-1017.58,-1.27,2.27,-2.15,0.60,6.75,-61.95,37.0
2026/04/20 22:45:13.25,IMU,-171.39,-30.27,-1017.09,-1.13,-0.11,0.60,-1.05,7.95,-63.15,37.2
2026/04/20 22:45:13.35,IMU,-177.25,-37.60,-1010.74,0.99,0.95,-1.34,1.05,8.25,-64.20,37.2
2026/04/20 22:45:13.45,IMU,-168.95,-22.95,-1024.90,0.76,0.50,0.72,-0.15,7.65,-62.85,36.9
2026/04/20 22:45:13.55,IMU,-175.29,-25.88,-1019.53,1.47,3.35,0.54,-0.30,7.20,-63.75,37.2
2026/04/20 22:45:13.65,IMU,-172.36,-29.79,-1031.25,0.98,1.92,0.84,-0.90,8.40,-62.55,37.3
2026/04/20 22:45:13.75,IMU,-166.02,-29.79,-999.02,-0.96,1.16,-2.07,0.00,9.75,-62.40,37.0
2026/04/20 22:45:13.85,IMU,-154.30,-23.93,-1015.63,0.63,1.90,-1.25,-1.05,7.95,-63.45,37.0
2026/04/20 22:45:13.96,IMU,-171.39,-28.32,-1007.81,1.27,-0.65,0.01,-0.90,7.65,-62.85,37.3
2026/04/20 22:45:14.06,IMU,-181.15,-41.99,-1016.60,-0.35,-2.61,-2.11,-0.15,6.90,-64.65,37.2
2026/04/20 22:45:14.16,IMU,-168.95,-29.30,-1000.49,-0.50,0.31,-2.18,0.15,8.40,-62.85,37.2
2026/04/20 22:45:14.26,IMU,-167.97,-22.46,-1021.48,-0.24,0.62,0.54,0.00,5.25,-62.70,36.8
2026/04/20 22:45:14.36,IMU,-167.97,-18.55,-1018.55,-1.37,-0.05,-0.86,0.60,7.20,-63.45,37.3
2026/04/20 22:45:14.46,IMU,-166.02,-23.44,-1017.09,-0.26,1.17,1.18,-1.20,8.10,-63.30,37.3
2026/04/20 22:45:14.56,IMU,-168.46,-34.18,-1013.18,-0.31,-0.08,0.02,0.15,7.35,-63.30,37.3
2026/04/20 22:45:14.66,IMU,-172.85,-32.23,-1017.09,0.85,-0.91,0.41,-0.15,7.65,-62.55,37.1
2026/04/20 22:45:14.76,IMU,-157.71,-32.23,-1009.28,0.67,1.85,-2.23,0.15,7.65,-62.85,36.9
2026/04/20 22:45:14.86,IMU,-179.20,-21.48,-1011.23,-1.88,2.06,0.21,-0.60,5.55,-62.70,37.0
2026/04/20 22:45:14.96,IMU,-170.41,-24.90,-1007.32,1.93,-0.45,0.21,-0.30,8.70,-62.70,37.0
2026/04/20 22:45:15.06,IMU,-166.50,-32.71,-1021.48,0.13,-0.09,1.56,0.15,7.65,-62.85,37.3
2026/04/20 22:45:15.16,IMU,-160.64,-18.07,-1015.14,-1.40,2.95,2.83,0.60,7.50,-61.95,36.9
2026/04/20 22:45:15.27,IMU,-177.25,-30.27,-1007.81,0.37,0.18,-0.68,-0.30,7.95,-63.15,37.3
2026/04/20 22:45:15.37,IMU,-175.78,-28.32,-1014.16,0.67,-2.43,1.60,-0.60,7.20,-61.95,37.3
2026/04/20 22:45:15.47,IMU,-166.99,-18.55,-1013.67,-0.77,0.06,-0.39,0.00,9.00,-62.70,36.9
2026/04/20 22:45:15.57,IMU,-184.08,-31.25,-1017.58,-0.15,3.56,2.10,-3.00,6.15,-60.75,36.9
2026/04/20 22:45:15.67,IMU,-165.53,-21.48,-1019.04,-0.56,1.14,-1.08,-0.30,7.50,-63.75,37.3
2026/04/20 22:45:15.77,IMU,-166.02,-25.39,-1012.21,0.04,-0.32,0.76,0.30,7.20,-62.70,37.2
2026/04/20 22:45:15.87,IMU,-163.09,-29.30,-1014.65,1.50,-0.20,1.50,0.45,7.35,-64.35,37.1
2026/04/20 22:45:15.97,IMU,-174.80,-31.74,-1011.23,-0.62,-0.49,-1.49,-0.90,7.65,-62.25,37.1
2026/04/20 22:45:16.08,IMU,-164.55,-17.58,-1021.48,1.75,0.47,1.24,0.15,7.35,-64.35,37.3
2026/04/20 22:45:16.18,IMU,-148.44,-31.25,-1021.97,-0.47,0.65,-0.44,-0.15,8.10,-62.55,37.4
2026/04/20 22:45:16.28,IMU,-154.30,-27.83,-1004.88,-0.76,-1.63,-0.08,0.60,7.50,-63.15,37.3
2026/04/20 22:45:16.38,IMU,-167.97,-25.88,-1026.86,-0.14,-1.65,-1.69,0.00,7.50,-63.45,37.1
2026/04/20 22:45:16.49,IMU,-156.25,-27.34,-1027.34,-1.38,-0.61,1.75,-1.65,8.10,-63.30,37.2
2026/04/20 22:45:16.59,IMU,-163.09,-39.06,-1021.00,-1.29,1.32,-1.01,-0.15,8.10,-63.60,37.3
2026/04/20 22:45:16.69,IMU,-176.76,-28.81,-1028.32,-0.22,0.02,-2.71,0.45,8.85,-61.50,37.3
2026/04/20 22:45:16.79,IMU,-154.79,-23.44,-1009.28,0.18,1.16,1.32,0.45,7.65,-63.60,37.0
2026/04/20 22:45:16.89,IMU,-166.99,-23.93,-1013.18,1.69,2.02,0.24,-0.15,8.10,-64.05,37.2
2026/04/20 22:45:16.99,IMU,-166.50,-14.16,-1013.18,-2.69,-0.73,0.52,-1.20,8.40,-62.85,37.2
2026/04/20 22:45:17.09,IMU,-169.92,-33.69,-1005.37,-0.91,-1.47,-0.45,0.00,7.50,-62.40,37.4
2026/04/20 22:45:17.19,IMU,-174.32,-44.43,-1005.86,-0.04,0.94,-1.82,-1.05,7.50,-63.45,37.2
2026/04/20 22:45:17.29,IMU,-160.16,-11.72,-1002.44,0.30,1.15,-0.68,0.15,6.90,-62.25,37.4
2026/04/20 22:45:17.39,IMU,-170.41,-31.25,-1016.60,0.89,-0.11,1.05,-1.05,6.45,-63.45,37.4
2026/04/20 22:45:17.49,IMU,-164.06,-25.39,-1016.11,0.23,-0.84,0.92,-1.65,7.65,-63.30,37.4
2026/04/20 22:45:17.59,IMU,-172.36,-13.18,-1022.46,-0.50,0.21,0.02,0.60,7.20,-63.45,37.3
2026/04/20 22:45:17.70,IMU,-171.39,-25.88,-1015.14,-0.99,0.25,-0.53,-0.90,6.60,-62.55,37.2
2026/04/20 22:45:17.80,IMU,-182.62,-28.32,-999.02,0.39,0.31,-0.69,-0.60,7.95,-62.40,37.4
2026/04/20 22:45:17.90,IMU,-163.09,-43.46,-1012.70,1.59,-1.54,-0.44,0.45,7.35,-61.80,37.2
2026/04/20 22:45:18.00,IMU,-153.32,-27.34,-1012.70,-0.31,1.63,-0.56,-0.30,7.95,-63.75,37.3
2026/04/20 22:45:18.10,IMU,-169.92,-29.30,-1008.30,-1.15,-0.16,0.07,1.05,7.20,-63.15,37.2
2026/04/20 22:45:18.20,IMU,-162.60,-29.79,-1010.25,-0.73,1.05,1.25,-0.90,8.40,-62.55,37.5
2026/04/20 22:45:18.30,IMU,-171.39,-30.76,-1019.04,0.76,-0.53,0.63,0.30,7.20,-61.35,37.3
2026/04/20 22:45:18.40,IMU,-169.43,-24.90,-1016.60,2.02,-1.11,1.87,0.00,8.70,-61.95,37.3
2026/04/20 22:45:18.50,IMU,-171.88,-26.86,-1013.18,-1.10,1.43,-0.29,0.00,7.95,-61.65,37.4
2026/04/20 22:45:18.60,IMU,-166.50,-39.55,-1012.21,0.16,0.14,0.47,-0.60,6.45,-63.15,37.5
2026/04/20 22:45:18.70,IMU,-162.60,-16.11,-1024.41,-0.15,-0.18,0.51,0.15,6.90,-62.25,37.3
2026/04/20 22:45:18.80,IMU,-158.20,-30.76,-1011.23,-1.24,1.76,0.40,0.15,7.35,-63.60,37.3
2026/04/20 22:45:18.91,IMU,-175.29,-16.11,-1015.14,0.15,-1.49,-0.15,-0.30,6.75,-62.40,37.3
2026/04/20 22:45:19.01,IMU,-159.18,-22.46,-1015.14,-0.21,-2.09,-1.31,-0.60,7.20,-62.40,37.3
2026/04/20 22:45:19.12,IMU,-177.25,-27.83,-1009.28,0.22,1.14,1.21,0.00,7.95,-64.20,37.5
2026/04/20 22:45:19.22,IMU,-159.67,-10.25,-1023.44,2.11,-0.39,-2.43,0.00,8.70,-63.45,37.3
2026/04/20 22:45:19.32,IMU,-188.96,-27.34,-1020.51,0.02,1.27,0.73,2.25,8.40,-63.30,37.3
2026/04/20 22:45:19.42,IMU,-172.85,-34.67,-1030.27,-0.10,0.70,-0.81,-0.60,7.50,-63.15,37.2
2026/04/20 22:45:19.52,IMU,-171.88,-22.46,-1015.14,0.70,0.93,-0.75,0.30,7.95,-63.15,37.3
2026/04/20 22:45:19.62,IMU,-169.43,-23.44,-1014.65,0.20,0.51,1.11,-0.60,6.45,-63.15,37.3
2026/04/20 22:45:19.72,IMU,-171.88,-21.97,-1009.77,-0.29,0.05,-0.21,0.30,6.00,-62.40,37.3
2026/04/20 22:45:19.82,IMU,-161.13,-30.76,-1016.11,1.74,1.29,-2.41,0.60,7.20,-62.40,37.3
2026/04/20 22:45:19.92,IMU,-168.95,-22.95,-1019.04,0.77,-0.85,-1.61,-0.15,7.65,-62.55,37.3
2026/04/20 22:45:20.02,IMU,-166.02,-14.16,-1018.55,0.29,-0.79,0.56,-0.90,7.65,-62.85,37.2
2026/04/20 22:45:20.12,IMU,-169.92,-38.57,-1013.18,0.02,1.11,-1.14,-0.30,8.70,-61.95,37.3
2026/04/20 22:45:20.22,IMU,-173.83,-34.18,-1016.60,2.26,0.16,-0.09,0.30,7.95,-63.15,37.0
2026/04/20 22:45:20.32,IMU,-165.04,-19.04,-1004.88,-0.81,0.41,-0.45,0.15,5.85,-62.25,37.3
2026/04/20 22:45:20.43,IMU,-155.27,-18.07,-1017.58,-1.00,-2.02,-3.31,0.90,7.35,-62.55,37.3
2026/04/20 22:45:20.53,IMU,-169.43,-36.62,-1026.37,-1.76,2.67,2.00,-0.90,6.90,-62.85,37.2
2026/04/20 22:45:20.63,IMU,-169.43,-22.95,-1009.77,2.03,0.98,0.47,-0.60,7.95,-61.65,36.9
2026/04/20 22:45:20.73,IMU,-168.95,-19.04,-1044.92,-0.79,-1.79,-0.98,-0.60,7.50,-62.70,37.2
2026/04/20 22:45:20.83,IMU,-152.34,-36.62,-1023.44,-0.20,-1.53,0.60,-0.30,8.25,-63.75,37.1
2026/04/20 22:45:20.93,IMU,-158.69,-13.18,-1006.84,1.33,-3.30,-0.67,-0.30,5.55,-63.15,37.0
2026/04/20 22:45:21.03,IMU,-161.62,-30.76,-1023.93,-0.50,0.85,1.02,-0.45,6.90,-63.30,37.3
2026/04/20 22:45:21.13,IMU,-171.39,-21.97,-1019.04,0.25,-0.17,-0.63,0.00,7.50,-62.70,37.2
2026/04/20 22:45:21.23,IMU,-162.60,-26.86,-1016.11,-0.82,1.26,-0.01,-0.15,7.35,-62.55,37.2
2026/04/20 22:45:21.33,IMU,-173.34,-28.32,-1038.09,-0.19,0.12,2.11,0.45,8.10,-63.60,37.0
2026/04/20 22:45:21.43,IMU,-156.25,-21.00,-1024.41,1.31,-0.23,1.37,1.05,7.20,-64.20,36.8
2026/04/20 22:45:21.53,IMU,-178.71,-21.00,-1039.55,-0.09,0.23,1.19,-0.15,6.60,-63.30,37.3
2026/04/20 22:45:21.64,IMU,-176.76,-26.37,-1023.93,-1.05,3.07,1.90,0.90,6.15,-64.35,37.0
2026/04/20 22:45:21.74,IMU,-180.18,-28.32,-1004.39,1.91,-0.05,-1.34,0.45,7.35,-62.25,36.8
2026/04/20 22:45:21.84,IMU,-161.62,-36.13,-1009.77,1.09,1.82,-2.63,1.35,7.95,-62.70,37.0
2026/04/20 22:45:21.94,IMU,-177.73,-31.74,-1025.39,0.54,-1.36,-0.61,0.45,8.10,-63.30,37.0
2026/04/20 22:45:22.04,IMU,-166.50,-32.23,-1012.70,0.14,-0.40,0.02,-0.90,8.10,-62.85,36.9
2026/04/20 22:45:22.14,IMU,-186.52,-29.79,-1014.16,1.28,0.32,0.11,0.00,6.60,-63.60,36.8
2026/04/20 22:45:22.24,IMU,-174.32,-29.79,-1019.04,-0.47,1.02,-2.11,0.15,8.40,-63.60,36.9
2026/04/20 22:45:22.34,IMU,-176.76,-19.04,-1017.09,0.40,0.96,-0.71,0.15,6.60,-62.85,36.9
2026/04/20 22:45:22.44,IMU,-161.13,-19.53,-1013.67,-0.25,0.29,-0.84,-0.90,8.10,-62.55,36.9
2026/04/20 22:45:22.54,IMU,-160.64,-20.02,-1015.14,-0.51,-0.50,1.00,-0.90,7.35,-61.80,36.9
2026/04/20 22:45:22.64,IMU,-168.46,-36.13,-1021.00,-0.11,1.95,0.08,-0.30,6.45,-61.95,36.9
2026/04/20 22:45:22.74,IMU,-157.23,-16.11,-1006.84,2.40,-3.13,-0.12,-3.00,5.85,-59.25,36.9
2026/04/20 22:45:22.84,IMU,-183.59,-25.39,-1021.00,0.01,0.47,-1.55,-1.05,7.20,-63.75,36.9
2026/04/20 22:45:22.95,IMU,-164.55,-30.27,-1023.93,-0.91,0.56,-0.31,0.45,6.90,-62.85,36.8
2026/04/20 22:45:23.05,IMU,-164.06,-33.69,-1020.51,0.70,0.02,-1.37,1.05,7.95,-63.45,36.8
2026/04/20 22:45:23.15,IMU,-181.15,-21.97,-1023.93,-0.31,1.94,-1.12,-0.15,7.65,-63.30,37.0
2026/04/20 22:45:23.25,IMU,-183.11,-23.44,-1016.60,-0.17,1.23,-0.93,0.00,7.95,-63.15,36.9
2026/04/20 22:45:23.35,IMU,-166.02,-17.09,-1010.74,-0.48,1.67,-0.58,-1.20,8.40,-62.25,36.6
2026/04/20 22:45:23.45,IMU,-158.69,-17.09,-1014.16,0.18,0.31,-1.00,-0.60,9.45,-62.70,36.8
2026/04/20 22:45:23.55,IMU,-159.67,-36.13,-1010.25,-0.72,-0.67,0.56,0.15,8.10,-62.55,36.8
2026/04/20 22:45:23.65,IMU,-168.95,-29.79,-1015.63,-1.67,0.07,2.48,0.15,8.10,-64.35,36.8
2026/04/20 22:45:23.76,IMU,-156.25,-29.30,-1014.16,-0.38,-3.21,-1.66,0.30,6.75,-63.45,36.6
2026/04/20 22:45:23.86,IMU,-168.95,-26.37,-1017.09,-0.69,0.33,1.04,0.00,6.45,-63.45,36.8
2026/04/20 22:45:23.96,IMU,-176.27,-26.86,-1011.72,0.89,0.16,-0.79,1.35,6.75,-62.70,36.9
2026/04/20 22:45:24.06,IMU,-173.83,-38.09,-1012.70,0.62,0.68,-1.28,0.90,7.65,-63.30,36.8
2026/04/20 22:45:24.16,IMU,-166.50,-19.53,-1018.55,-2.30,-0.88,2.92,0.45,7.35,-62.55,36.7
2026/04/20 22:45:24.26,IMU,-162.60,-32.23,-1030.27,0.89,-0.14,2.78,-0.30,6.45,-62.70,36.8
2026/04/20 22:45:24.36,IMU,-165.53,-31.25,-1019.53,0.16,-0.50,-1.02,-0.90,8.40,-62.25,36.8
2026/04/20 22:45:24.46,IMU,-174.32,-25.39,-1011.23,-0.41,3.31,0.47,-1.65,7.65,-63.60,36.7
2026/04/20 22:45:24.56,IMU,-167.97,-33.20,-1021.48,1.47,2.37,2.68,0.00,7.20,-62.70,36.8
2026/04/20 22:45:24.66,IMU,-154.30,-30.76,-1025.88,-0.37,0.11,0.82,0.90,8.85,-63.30,36.7
2026/04/20 22:45:24.76,IMU,-172.36,-31.74,-1026.37,1.66,-0.85,1.45,0.30,7.95,-62.40,36.8
2026/04/20 22:45:24.86,IMU,-164.55,-36.13,-1025.39,-1.59,0.28,-1.69,-0.15,8.40,-62.55,36.8
2026/04/20 22:45:24.97,IMU,-158.69,-27.83,-1013.18,1.77,1.62,2.04,-0.90,8.10,-63.45,36.8
2026/04/20 22:45:25.08,IMU,-164.55,-16.60,-1015.14,0.38,0.98,-0.20,0.00,7.95,-62.70,36.9
2026/04/20 22:45:25.18,IMU,-164.06,-28.32,-1015.63,0.36,-0.22,-2.17,-1.05,7.50,-62.40,36.8
2026/04/20 22:45:25.28,IMU,-160.64,-26.86,-1025.88,0.48,-0.69,-0.38,-0.60,7.95,-63.75,36.7
2026/04/20 22:45:25.38,IMU,-169.92,-26.37,-1010.25,0.55,-2.49,-0.15,1.35,7.50,-63.15,36.8
2026/04/20 22:45:25.48,IMU,-178.22,-22.46,-1015.14,0.41,-2.33,-0.31,-0.30,8.25,-62.40,36.7
2026/04/20 22:45:25.58,IMU,-168.46,-23.93,-1012.70,1.65,0.21,0.49,-0.30,7.20,-63.15,36.5
2026/04/20 22:45:25.68,IMU,-164.06,-29.79,-1015.63,-2.05,-2.55,-2.40,0.30,8.25,-63.15,36.7
2026/04/20 22:45:25.78,IMU,-171.88,-23.93,-1010.74,1.16,2.71,-0.38,-1.95,5.85,-62.85,36.7
2026/04/20 22:45:25.88,IMU,-179.20,-33.20,-1009.28,1.04,-0.50,-1.97,-3.60,6.00,-58.80,36.8
2026/04/20 22:45:25.98,IMU,-166.99,-22.46,-1013.18,-1.14,1.92,1.14,-0.15,8.10,-62.25,36.5
2026/04/20 22:45:26.08,IMU,-164.06,-46.88,-1012.21,0.85,-0.97,0.60,0.90,8.40,-63.60,36.8
2026/04/20 22:45:26.18,IMU,-168.46,-23.93,-1007.32,-0.04,-0.27,0.63,1.05,5.55,-63.15,36.5
2026/04/20 22:45:26.29,IMU,-179.20,-29.30,-1022.46,0.60,1.36,1.06,-0.90,7.35,-63.60,36.8
2026/04/20 22:45:26.39,IMU,-169.92,-22.95,-1017.09,0.65,0.01,1.45,-0.30,6.45,-64.20,36.8
2026/04/20 22:45:26.49,IMU,-150.39,-33.69,-1024.90,0.98,0.96,-0.15,-0.30,6.45,-63.75,36.6
2026/04/20 22:45:26.59,IMU,-168.95,-29.30,-1014.65,-0.24,-0.53,-0.53,-1.35,7.20,-63.15,36.5
2026/04/20 22:45:26.69,IMU,-162.11,-36.62,-1020.51,0.54,0.23,-1.15,-0.30,6.00,-63.15,36.8
2026/04/20 22:45:26.79,IMU,-170.41,-30.27,-1010.74,-1.24,0.35,-0.49,0.30,7.20,-62.70,36.5
2026/04/20 22:45:26.89,IMU,-161.62,-28.81,-1013.67,-1.69,0.24,-1.20,0.60,7.50,-63.75,36.5
2026/04/20 22:45:26.99,IMU,-165.04,-24.41,-1019.53,-1.34,2.34,2.40,1.65,6.15,-62.85,36.6
2026/04/20 22:45:27.09,IMU,-167.97,-34.67,-1015.14,0.32,1.51,2.35,-0.45,8.10,-62.55,36.8
2026/04/20 22:45:27.19,IMU,-165.04,-27.34,-1015.63,0.51,-2.37,0.78,-1.05,8.25,-62.40,36.6
2026/04/20 22:45:27.29,IMU,-166.02,-29.79,-1019.53,-0.79,1.03,-1.65,-1.20,6.60,-63.30,36.7
2026/04/20 22:45:27.39,IMU,-185.06,-34.67,-1003.91,1.11,0.63,3.49,-0.30,7.50,-62.40,36.8
2026/04/20 22:45:27.49,IMU,-151.37,-28.81,-1021.00,1.44,0.18,-0.78,0.30,7.50,-63.45,36.7
2026/04/20 22:45:27.60,IMU,-177.25,-37.11,-1011.23,0.89,0.81,0.33,-0.45,8.40,-63.30,36.7
2026/04/20 22:45:27.70,IMU,-160.64,-42.48,-1021.97,-1.27,0.08,-0.81,0.30,7.95,-64.20,36.7
2026/04/20 22:45:27.80,IMU,-183.59,-17.09,-1018.07,-0.56,0.62,-1.22,-0.15,6.60,-62.55,36.7
2026/04/20 22:45:27.91,IMU,-182.13,-24.41,-1013.67,0.27,-4.14,1.15,0.60,6.45,-61.95,36.8
2026/04/20 22:45:28.01,IMU,-175.78,-24.90,-1016.11,-1.66,2.59,1.56,0.15,6.60,-64.05,36.5
2026/04/20 22:45:28.11,IMU,-162.11,-20.51,-1020.51,-0.34,-0.11,-0.31,-2.25,7.65,-63.30,36.8
2026/04/20 22:45:28.21,IMU,-154.30,-25.39,-1007.81,-0.98,-2.08,0.46,-1.05,7.95,-64.20,36.6
2026/04/20 22:45:28.31,IMU,-165.04,-19.04,-1016.11,0.40,-1.65,1.50,-0.60,7.50,-62.40,36.5
2026/04/20 22:45:28.41,IMU,-171.88,-26.37,-1017.58,1.54,0.73,-0.59,-1.05,6.45,-62.70,36.7
2026/04/20 22:45:28.51,IMU,-159.67,-34.67,-1008.79,-0.17,-1.55,-0.47,1.20,7.35,-64.35,36.8
2026/04/20 22:45:28.62,IMU,-153.81,-18.07,-1016.11,0.12,0.66,-2.88,0.45,6.90,-62.55,36.8
2026/04/20 22:45:28.72,IMU,-165.04,-27.34,-1029.79,-0.19,0.34,0.32,-0.15,7.35,-64.05,36.3
2026/04/20 22:45:28.82,IMU,-152.34,-30.27,-1025.39,0.08,-1.85,-2.20,0.00,8.25,-63.45,36.6
2026/04/20 22:45:28.92,IMU,-157.71,-24.90,-1006.35,0.21,-2.26,-0.88,-0.30,7.50,-61.95,36.7
2026/04/20 22:45:29.02,IMU,-165.53,-35.64,-1006.35,-2.08,-2.08,1.85,-0.60,7.95,-63.15,36.5
2026/04/20 22:45:29.12,IMU,-165.04,-29.30,-1030.76,0.66,-2.24,-0.80,-0.60,8.25,-62.40,36.5
2026/04/20 22:45:29.22,IMU,-161.13,-28.81,-1021.97,0.69,-0.54,-1.85,-0.15,6.60,-63.30,36.7
2026/04/20 22:45:29.32,IMU,-175.29,-24.41,-1024.41,0.71,-3.05,-2.11,-1.20,6.90,-63.60,36.7
2026/04/20 22:45:29.42,IMU,-165.04,-14.16,-1025.39,0.85,1.27,1.38,0.45,7.35,-62.85,36.7
2026/04/20 22:45:29.52,IMU,-169.92,-28.32,-1018.07,0.11,0.53,-1.26,-0.15,8.40,-62.85,36.5
2026/04/20 22:45:29.62,IMU,-177.25,-14.16,-1028.81,0.34,1.13,0.71,-0.15,8.10,-62.85,36.5
2026/04/20 22:45:29.72,IMU,-167.48,-21.97,-1030.27,-1.76,1.82,-1.40,0.45,7.65,-62.85,36.3
2026/04/20 22:45:29.82,IMU,-161.62,-22.95,-1030.76,-0.18,-1.68,-2.31,-1.35,5.55,-62.40,36.5
2026/04/20 22:45:29.93,IMU,-167.97,-28.32,-1023.44,0.43,0.93,0.17,-1.65,9.30,-63.60,36.5
2026/04/20 22:45:30.03,IMU,-166.99,-30.76,-1012.21,2.29,1.72,0.89,-0.45,7.35,-65.10,36.7
2026/04/20 22:45:30.13,IMU,-157.23,-27.83,-1015.63,-0.44,-0.38,-0.02,0.30,7.95,-64.50,36.5
2026/04/20 22:45:30.23,IMU,-159.67,-32.71,-1013.67,-1.53,0.26,-0.64,0.30,7.50,-62.70,36.6
2026/04/20 22:45:30.33,IMU,-177.25,-30.76,-1023.44,0.76,-2.35,1.50,-0.15,6.90,-62.55,36.6
2026/04/20 22:45:30.43,IMU,-172.36,-22.95,-1014.16,-0.10,-1.03,0.41,0.00,9.00,-62.70,36.4
2026/04/20 22:45:30.53,IMU,-152.34,-24.90,-1010.74,0.12,2.45,0.61,-0.15,8.40,-62.25,36.6
2026/04/20 22:45:30.63,IMU,-155.27,-25.39,-1023.44,0.27,-0.10,-0.94,-0.30,8.25,-61.95,36.5
2026/04/20 22:45:30.73,IMU,-169.92,-21.97,-1021.00,1.58,-1.34,3.02,0.30,8.25,-61.95,36.6
2026/04/20 22:45:30.83,IMU,-162.11,-34.67,-1021.48,-1.39,1.93,-2.12,-0.90,6.60,-62.55,36.4
2026/04/20 22:45:30.93,IMU,-153.81,-24.90,-1018.07,1.08,-1.04,2.95,-2.25,4.65,-59.25,36.7
2026/04/20 22:45:31.03,IMU,-168.95,-39.55,-1008.30,2.16,0.35,0.22,-0.60,7.95,-62.70,36.6
2026/04/20 22:45:31.13,IMU,-175.29,-31.25,-1031.74,1.21,0.79,-0.74,1.05,7.50,-63.15,36.7
2026/04/20 22:45:31.24,IMU,-168.95,-20.51,-1016.11,1.11,0.49,0.44,-1.35,7.20,-63.15,36.5
2026/04/20 22:45:31.34,IMU,-177.25,-22.95,-1027.34,1.56,2.21,-0.63,-0.45,8.10,-64.35,36.5
2026/04/20 22:45:31.44,IMU,-173.83,-23.44,-1003.91,-0.79,-1.37,2.07,-0.60,6.75,-62.70,36.6
2026/04/20 22:45:31.54,IMU,-161.13,-17.58,-1019.04,0.35,2.31,0.60,0.90,7.35,-63.60,36.8
2026/04/20 22:45:31.64,IMU,-172.85,-31.25,-1026.37,-1.02,0.73,1.53,-0.30,7.20,-61.95,36.5
2026/04/20 22:45:31.74,IMU,-165.04,-10.74,-1016.11,-0.63,-0.29,1.63,-0.45,7.65,-63.30,36.5
2026/04/20 22:45:31.84,IMU,-172.85,-27.34,-1034.67,-0.15,0.59,0.21,-1.05,7.50,-63.15,36.7
2026/04/20 22:45:31.94,IMU,-159.67,-41.99,-1023.44,1.30,0.56,-0.86,-5.10,5.55,-58.80,36.5
2026/04/20 22:45:32.05,IMU,-163.09,-31.74,-1009.28,2.33,0.56,1.21,-2.55,5.25,-61.35,36.8
2026/04/20 22:45:32.15,IMU,-177.73,-18.55,-1022.46,-0.63,-1.15,1.73,0.60,6.00,-63.15,36.4
2026/04/20 22:45:32.25,IMU,-176.76,-42.48,-1011.72,0.16,0.20,-1.55,-0.30,8.70,-63.75,36.5
2026/04/20 22:45:32.35,IMU,-163.57,-31.74,-1007.32,-0.38,-0.44,0.61,-0.90,7.35,-63.30,36.4
2026/04/20 22:45:32.45,IMU,-167.48,-27.83,-1011.23,0.89,-0.23,-3.24,-0.45,6.15,-63.60,36.3
2026/04/20 22:45:32.55,IMU,-170.41,-34.67,-1027.83,-1.21,-0.82,-0.11,-0.30,6.00,-62.70,36.6
2026/04/20 22:45:32.65,IMU,-167.48,-20.51,-1026.37,1.49,1.98,-3.05,-0.45,5.85,-63.60,36.5
2026/04/20 22:45:32.75,IMU,-168.95,-16.60,-1021.97,0.70,-0.02,0.61,1.35,7.20,-63.75,36.7
2026/04/20 22:45:32.85,IMU,-154.30,-28.81,-1024.41,2.15,1.64,-0.60,1.05,7.50,-63.15,36.4
2026/04/20 22:45:32.95,IMU,-167.48,-25.39,-1030.27,-0.93,0.25,-0.60,-1.20,6.60,-63.60,36.6
2026/04/20 22:45:33.05,IMU,-156.25,-26.37,-1030.76,1.44,-1.41,-2.60,-1.20,6.90,-62.55,36.4
2026/04/20 22:45:33.15,IMU,-164.06,-19.04,-1021.97,-1.23,1.60,-2.23,-0.15,7.35,-62.25,36.2
2026/04/20 22:45:33.25,IMU,-146.97,-32.71,-1012.21,0.79,1.75,-0.90,-1.35,8.70,-62.40,36.4
2026/04/20 22:45:33.36,IMU,-176.27,-28.81,-1010.74,-0.53,0.44,-1.35,1.05,8.25,-63.15,36.3
2026/04/20 22:45:33.46,IMU,-172.36,-46.39,-1017.58,-1.15,2.84,1.53,0.15,6.90,-64.35,36.5
2026/04/20 22:45:33.56,IMU,-167.97,-17.58,-1035.16,-0.37,-1.27,2.56,-0.60,7.50,-62.70,36.5
2026/04/20 22:45:33.66,IMU,-167.48,-25.88,-1021.00,-0.29,0.68,-1.96,-1.05,6.75,-62.40,36.3
2026/04/20 22:45:33.76,IMU,-160.16,-33.20,-1018.55,0.02,-2.23,-0.55,0.00,7.20,-64.20,36.2
2026/04/20 22:45:33.86,IMU,-165.04,-30.27,-1025.88,1.33,-0.03,1.64,-1.35,7.95,-63.45,36.2
2026/04/20 22:45:33.96,IMU,-155.76,-16.60,-1019.04,-1.78,0.12,0.31,-0.15,6.90,-62.55,36.4
2026/04/20 22:45:34.07,IMU,-156.25,-32.71,-996.09,1.44,-2.62,0.87,-1.05,7.50,-63.45,36.2
2026/04/20 22:45:34.17,IMU,-165.04,-18.07,-1019.04,0.46,-0.95,-2.18,-0.15,7.65,-63.30,36.5
2026/04/20 22:45:34.27,IMU,-163.09,-19.04,-1010.74,-0.60,2.82,0.72,-0.45,6.90,-63.30,36.2
2026/04/20 22:45:34.37,IMU,-166.02,-16.11,-1016.11,0.92,-3.43,-1.83,-1.20,7.65,-62.25,36.3
2026/04/20 22:45:34.47,IMU,-174.80,-31.74,-1013.67,-0.66,0.35,0.29,-1.05,8.70,-62.40,36.5
2026/04/20 22:45:34.57,IMU,-166.02,-26.86,-1008.79,0.32,-1.79,-0.17,-1.05,7.50,-64.50,36.5
2026/04/20 22:45:34.67,IMU,-168.95,-43.46,-1020.02,-0.19,0.88,1.00,-1.20,7.35,-62.55,36.7
2026/04/20 22:45:34.77,IMU,-162.11,-19.04,-1018.55,1.82,2.41,-0.08,0.00,7.20,-63.75,36.5
2026/04/20 22:45:34.88,IMU,-167.48,-33.20,-1015.14,0.03,1.63,-1.80,0.00,8.70,-64.20,36.2
2026/04/20 22:45:34.98,IMU,-169.92,-23.93,-1004.88,0.90,-0.38,-2.91,0.00,9.45,-61.95,36.5
2026/04/20 22:45:35.08,IMU,-167.97,-26.37,-1001.46,1.60,-0.21,-0.63,0.30,8.70,-63.45,36.2
2026/04/20 22:45:35.18,IMU,-166.99,-31.74,-1015.14,-0.65,3.19,-0.93,-1.05,6.45,-62.40,36.2
2026/04/20 22:45:35.28,IMU,-152.34,-35.16,-1006.84,0.46,3.51,-2.48,-0.45,7.35,-63.60,36.2
2026/04/20 22:45:35.38,IMU,-172.36,-29.79,-1004.39,0.82,0.64,0.43,1.05,7.20,-62.40,36.3
