Timestamp,Sensor,AccX,AccY,AccZ,GyrX,GyrY,GyrZ,MagX,MagY,MagZ,Temp
2026/04/20 15:39:16.90,IMU,-164.55,-146.48,-998.54,1.59,1.05,1.92,-6.00,0.90,-62.25,31.5
2026/04/20 15:39:17.00,IMU,-165.04,-154.30,-1007.81,0.76,1.27,-0.26,-3.00,1.95,-69.00,31.7
2026/04/20 15:39:17.10,IMU,-163.09,-152.83,-1001.95,-0.24,0.72,-0.49,-2.10,2.55,-68.55,31.7
2026/04/20 15:39:17.20,IMU,-166.02,-154.79,-1004.88,1.18,1.31,0.27,-1.35,1.80,-68.10,31.2
2026/04/20 15:39:17.30,IMU,-159.67,-153.81,-1008.79,-0.82,0.21,-1.15,-3.60,1.50,-68.55,31.7
2026/04/20 15:39:17.40,IMU,-165.04,-162.11,-1017.58,-0.66,0.69,-1.15,-1.80,2.25,-68.85,31.7
2026/04/20 15:39:17.50,IMU,-162.11,-146.00,-1001.46,1.04,-0.62,0.32,-2.85,0.75,-68.55,31.7
2026/04/20 15:39:17.60,IMU,-161.62,-154.30,-998.54,-0.42,-0.29,0.59,-1.35,2.55,-66.75,31.4
2026/04/20 15:39:17.70,IMU,-161.62,-142.58,-1000.49,1.19,0.60,-0.81,-3.30,3.00,-68.10,31.9
2026/04/20 15:39:17.80,IMU,-159.18,-156.74,-1001.46,-0.63,0.89,-0.94,-3.60,0.75,-67.05,31.6
2026/04/20 15:39:17.90,IMU,-167.48,-153.81,-999.02,-2.44,2.73,-1.74,-3.30,2.25,-68.10,31.5
2026/04/20 15:39:18.00,IMU,-162.60,-151.86,-1005.86,0.59,0.89,1.47,-1.35,1.80,-66.00,31.4
2026/04/20 15:39:18.10,IMU,-166.02,-154.30,-1001.46,-1.20,0.55,-0.53,-3.00,3.15,-66.45,31.7
2026/04/20 15:39:18.21,IMU,-166.50,-152.34,-1000.00,0.88,-0.14,-1.21,-3.00,2.40,-67.65,31.7
2026/04/20 15:39:18.31,IMU,-164.06,-157.71,-998.54,0.48,-1.38,-1.15,-3.30,1.05,-66.75,31.8
2026/04/20 15:39:18.41,IMU,-153.32,-158.20,-1002.93,-0.48,0.45,0.22,-2.10,2.25,-67.80,31.7
2026/04/20 15:39:18.51,IMU,-173.34,-156.74,-1002.93,1.37,0.85,-2.98,-3.45,2.40,-66.90,31.5
2026/04/20 15:39:18.61,IMU,-176.27,-159.67,-995.12,-0.15,0.99,0.27,-1.95,1.20,-67.20,31.7
2026/04/20 15:39:18.71,IMU,-161.62,-147.95,-1012.21,2.34,-2.24,0.86,-3.30,2.55,-66.75,31.8
2026/04/20 15:39:18.81,IMU,-157.23,-151.86,-1000.00,0.34,0.07,-1.04,-3.45,1.65,-68.70,31.7
2026/04/20 15:39:18.91,IMU,-154.79,-147.46,-1008.79,-0.97,-0.82,-1.84,-3.30,3.00,-67.35,31.7
2026/04/20 15:39:19.01,IMU,-163.57,-144.53,-1021.00,0.82,1.02,-1.43,-2.25,2.40,-69.00,31.7
2026/04/20 15:39:19.11,IMU,-186.52,-150.88,-1014.16,-1.69,0.08,0.32,-2.10,3.75,-67.05,31.7
2026/04/20 15:39:19.21,IMU,-162.60,-145.51,-1009.77,0.88,1.95,0.61,-1.95,0.90,-67.65,31.5
2026/04/20 15:39:19.31,IMU,-154.30,-157.23,-1003.91,1.61,2.28,2.18,-3.30,3.30,-67.05,31.7
2026/04/20 15:39:19.41,IMU,-175.29,-154.79,-1011.23,0.27,2.28,-0.79,-2.70,2.40,-66.15,31.7
2026/04/20 15:39:19.51,IMU,-171.88,-152.34,-1009.77,0.60,-0.69,-1.47,-1.05,0.30,-66.75,31.7
2026/04/20 15:39:19.61,IMU,-170.90,-160.64,-998.54,0.01,-0.27,3.34,-2.55,2.25,-66.30,31.6
2026/04/20 15:39:19.71,IMU,-162.60,-148.44,-1022.46,-0.20,0.76,-0.08,-3.45,2.40,-67.95,31.6
2026/04/20 15:39:19.81,IMU,-169.92,-157.23,-1005.86,1.63,-0.42,-0.60,-2.70,2.70,-67.95,31.6
2026/04/20 15:39:19.91,IMU,-152.83,-158.20,-1001.95,-0.79,1.92,-2.29,-2.25,2.40,-67.95,31.7
2026/04/20 15:39:20.01,IMU,-165.04,-132.32,-1011.23,-0.63,1.10,-0.07,-2.70,1.95,-67.65,31.6
2026/04/20 15:39:20.11,IMU,-155.76,-154.79,-1012.70,-0.63,-0.99,2.21,-2.25,1.95,-67.65,31.7
2026/04/20 15:39:20.22,IMU,-168.95,-140.63,-1020.51,0.88,0.74,0.29,-2.10,1.05,-67.05,31.6
2026/04/20 15:39:20.32,IMU,-148.93,-152.83,-1016.11,-0.21,-1.02,0.53,-1.65,1.20,-67.65,31.7
2026/04/20 15:39:20.42,IMU,-152.34,-143.07,-1004.88,-0.07,1.70,-1.31,-2.55,1.80,-69.30,31.6
2026/04/20 15:39:20.52,IMU,-155.76,-146.00,-1007.81,0.19,2.26,-1.51,-3.60,1.50,-67.80,31.7
2026/04/20 15:39:20.62,IMU,-168.46,-146.48,-998.05,-0.61,2.89,1.46,-2.10,1.80,-67.80,31.8
2026/04/20 15:39:20.72,IMU,-168.46,-161.62,-1014.65,-0.14,-0.34,0.76,-1.95,2.40,-65.85,31.7
2026/04/20 15:39:20.82,IMU,-157.71,-154.79,-1004.88,-1.31,-2.85,-2.66,-3.00,2.70,-66.15,31.8
2026/04/20 15:39:20.92,IMU,-164.55,-159.18,-1010.25,-1.08,-1.44,-1.43,-2.70,1.65,-67.95,31.8
2026/04/20 15:39:21.02,IMU,-160.16,-142.58,-1021.00,-0.37,0.55,0.35,-2.85,1.80,-68.10,31.7
2026/04/20 15:39:21.12,IMU,-155.76,-143.07,-1008.79,1.31,2.66,-0.60,-2.55,2.25,-66.75,31.7
2026/04/20 15:39:21.22,IMU,-166.99,-142.09,-1004.88,-1.13,-0.23,-0.44,-3.30,3.00,-66.75,31.6
2026/04/20 15:39:21.32,IMU,-166.02,-157.71,-1014.16,0.09,0.36,2.51,-3.75,3.15,-67.20,31.7
2026/04/20 15:39:21.42,IMU,-171.88,-145.02,-1002.93,-1.57,1.10,-1.51,-1.80,3.30,-66.30,31.7
2026/04/20 15:39:21.52,IMU,-171.39,-154.79,-1020.02,0.40,0.02,-0.14,-3.00,1.95,-67.95,31.7
2026/04/20 15:39:21.62,IMU,-164.06,-163.57,-1003.42,0.25,-1.63,0.21,-3.75,1.20,-66.45,31.6
2026/04/20 15:39:21.72,IMU,-166.99,-162.60,-1011.72,-1.26,-0.37,-0.20,-3.45,1.95,-68.25,31.7
2026/04/20 15:39:21.82,IMU,-181.15,-146.00,-1012.21,-0.21,-0.66,-1.34,-1.80,2.25,-67.05,31.7
2026/04/20 15:39:21.92,IMU,-174.80,-139.16,-1011.23,2.34,0.71,-0.27,-2.85,0.30,-66.75,31.8
2026/04/20 15:39:22.02,IMU,-159.67,-164.55,-1009.28,0.73,-1.44,0.52,-6.75,-0.15,-63.30,31.7
2026/04/20 15:39:22.12,IMU,-164.06,-155.27,-1003.91,0.88,-1.72,2.37,-3.30,2.55,-66.75,31.5
2026/04/20 15:39:22.22,IMU,-182.62,-151.37,-999.51,-0.36,-0.44,-2.55,-2.70,2.40,-67.20,31.7
2026/04/20 15:39:22.33,IMU,-154.30,-155.76,-1005.86,0.84,-0.57,1.98,-2.85,1.50,-68.10,31.7
2026/04/20 15:39:22.43,IMU,-164.06,-148.93,-1011.23,2.24,-0.58,-1.63,-2.85,2.55,-67.80,31.7
2026/04/20 15:39:22.53,IMU,-176.76,-144.04,-998.54,1.15,2.29,1.14,-3.75,1.65,-67.20,31.7
2026/04/20 15:39:22.63,IMU,-167.97,-148.44,-995.61,0.06,0.27,0.61,-2.85,1.80,-67.35,31.8
2026/04/20 15:39:22.73,IMU,-171.39,-142.09,-991.70,-0.45,-0.05,1.68,-2.70,2.70,-66.90,31.7
2026/04/20 15:39:22.83,IMU,-166.50,-152.34,-1000.49,0.95,0.88,1.26,-1.95,2.40,-68.25,31.5
2026/04/20 15:39:22.93,IMU,-151.37,-178.71,-1010.25,2.72,-3.45,-2.72,-1.80,1.50,-66.00,31.8
2026/04/20 15:39:23.04,IMU,-173.83,-144.04,-1014.65,0.63,1.31,-0.28,-7.05,1.20,-64.35,31.7
2026/04/20 15:39:23.14,IMU,-152.34,-153.32,-1001.46,0.21,-0.53,0.91,-3.45,1.20,-67.65,31.9
2026/04/20 15:39:23.24,IMU,-140.63,-147.46,-1022.95,0.36,-2.88,1.60,-2.55,2.25,-67.35,31.9
2026/04/20 15:39:23.34,IMU,-148.93,-154.30,-1006.35,0.47,0.06,-2.71,-2.70,3.60,-67.95,31.4
2026/04/20 15:39:23.44,IMU,-170.41,-157.23,-989.26,-1.19,0.94,1.82,-2.70,2.40,-66.45,31.7
2026/04/20 15:39:23.54,IMU,-172.36,-153.81,-1006.35,-0.21,2.26,2.85,-3.45,1.65,-67.95,31.7
2026/04/20 15:39:23.64,IMU,-168.95,-150.39,-1010.25,-0.28,-0.21,1.60,-3.30,2.55,-66.30,31.8
2026/04/20 15:39:23.74,IMU,-158.69,-147.46,-988.77,1.76,0.98,2.37,-3.60,2.25,-68.55,31.5
2026/04/20 15:39:23.84,IMU,-166.99,-159.67,-999.51,-0.53,-1.61,0.62,-2.10,2.25,-67.80,31.9
2026/04/20 15:39:23.94,IMU,-172.85,-144.04,-1010.25,-0.05,0.07,-0.17,-3.45,0.90,-67.20,32.0
2026/04/20 15:39:24.05,IMU,-176.27,-150.88,-1002.93,-0.94,2.53,1.09,-3.30,3.00,-67.35,32.1
2026/04/20 15:39:24.15,IMU,-163.09,-151.86,-1000.49,0.28,0.16,-1.88,-2.85,1.80,-68.55,32.0
2026/04/20 15:39:24.25,IMU,-167.48,-151.37,-1013.18,-0.64,-1.12,0.32,-3.00,1.95,-67.95,31.7
2026/04/20 15:39:24.35,IMU,-173.34,-148.44,-1000.49,2.61,0.18,-0.28,-1.80,3.00,-67.35,32.0
2026/04/20 15:39:24.45,IMU,-159.67,-150.88,-995.61,1.27,-0.80,3.97,-2.55,2.25,-66.75,31.9
2026/04/20 15:39:24.55,IMU,-167.97,-146.48,-1003.91,1.06,1.74,0.95,-3.30,1.50,-66.75,31.5
2026/04/20 15:39:24.65,IMU,-165.53,-146.97,-1003.91,0.72,-0.44,3.21,-4.50,2.40,-67.95,32.1
2026/04/20 15:39:24.75,IMU,-162.60,-155.27,-999.02,0.21,-0.60,-2.43,-2.70,1.20,-68.25,31.9
2026/04/20 15:39:24.85,IMU,-168.46,-153.81,-1015.63,-0.13,-0.28,-3.06,-2.70,2.70,-66.90,31.8
2026/04/20 15:39:24.95,IMU,-169.43,-147.46,-1000.49,0.10,3.37,-0.97,-3.30,1.05,-67.80,31.9
2026/04/20 15:39:25.05,IMU,-154.30,-139.65,-999.02,-1.44,1.43,0.96,-2.85,1.50,-67.05,31.9
2026/04/20 15:39:25.15,IMU,-171.39,-146.48,-994.63,-0.15,-2.40,-0.49,-3.00,3.60,-67.65,31.9
2026/04/20 15:39:25.25,IMU,-171.39,-151.37,-1004.88,0.53,0.57,-1.50,-2.85,3.00,-68.85,31.7
2026/04/20 15:39:25.36,IMU,-168.46,-152.34,-1002.44,-0.24,-0.86,1.37,-1.95,2.70,-67.20,31.7
2026/04/20 15:39:25.46,IMU,-167.97,-156.74,-1014.65,1.65,-0.73,-0.61,-1.80,3.00,-67.05,32.0
2026/04/20 15:39:25.56,IMU,-168.46,-165.53,-997.56,-0.34,0.92,-0.99,-2.70,1.95,-66.90,31.9
2026/04/20 15:39:25.66,IMU,-162.11,-147.95,-994.63,1.05,-0.23,0.92,-2.70,2.70,-65.40,32.0
2026/04/20 15:39:25.76,IMU,-161.13,-155.27,-1009.77,-1.05,1.08,0.61,-1.95,1.95,-67.95,31.7
2026/04/20 15:39:25.86,IMU,-166.50,-152.83,-1007.32,0.62,0.18,0.86,-1.65,1.95,-67.65,31.9
2026/04/20 15:39:25.96,IMU,-177.25,-148.44,-1005.86,1.85,-2.69,-1.41,-2.70,2.70,-67.95,31.9
2026/04/20 15:39:26.06,IMU,-178.22,-146.97,-1007.81,1.49,0.23,1.85,-1.80,2.25,-67.35,32.0
2026/04/20 15:39:26.16,IMU,-156.74,-149.90,-1010.74,-1.03,-0.18,1.31,-6.00,0.15,-65.10,31.9
2026/04/20 15:39:26.26,IMU,-168.46,-146.00,-1006.84,-0.14,1.67,1.65,-3.90,3.30,-67.05,31.7
2026/04/20 15:39:26.36,IMU,-148.93,-148.93,-1012.21,0.20,-2.06,2.53,-1.80,1.50,-67.05,31.7
2026/04/20 15:39:26.47,IMU,-171.39,-146.00,-1015.63,-0.15,-0.88,1.69,-3.30,1.50,-66.75,31.7
2026/04/20 15:39:26.57,IMU,-176.76,-145.02,-1003.42,0.75,0.52,1.18,-3.30,1.05,-67.05,31.9
2026/04/20 15:39:26.67,IMU,-166.50,-153.32,-1006.84,-0.83,-1.50,2.16,-2.55,2.25,-66.75,31.9
2026/04/20 15:39:26.77,IMU,-163.57,-145.02,-1004.88,-2.08,0.14,-0.40,-3.30,1.50,-68.10,31.9
2026/04/20 15:39:26.87,IMU,-162.11,-139.65,-1021.48,0.05,-0.21,-0.34,-1.95,1.95,-67.95,32.2
2026/04/20 15:39:26.97,IMU,-165.53,-149.41,-1004.39,2.43,2.50,-1.60,-2.70,2.40,-67.20,32.2
2026/04/20 15:39:27.07,IMU,-176.27,-154.79,-1005.37,2.50,-1.78,-0.66,-1.80,1.80,-67.35,31.9
2026/04/20 15:39:27.17,IMU,-155.27,-149.41,-994.14,-1.29,1.50,1.13,-2.85,1.80,-66.30,31.8
2026/04/20 15:39:27.27,IMU,-168.95,-147.46,-1003.42,-0.92,-1.50,-0.81,-2.70,2.40,-67.65,32.1
2026/04/20 15:39:27.37,IMU,-168.95,-153.81,-1006.84,0.08,-1.06,-0.96,-2.55,1.80,-67.35,32.0
2026/04/20 15:39:27.47,IMU,-172.85,-148.93,-1000.00,0.15,1.01,0.05,-1.65,1.65,-67.95,32.1
2026/04/20 15:39:27.57,IMU,-173.83,-152.34,-1002.44,0.70,0.31,0.33,-2.70,2.70,-68.25,31.9
2026/04/20 15:39:27.67,IMU,-174.32,-156.74,-1000.49,1.53,1.27,-0.90,-3.75,2.70,-67.95,31.9
2026/04/20 15:39:27.77,IMU,-155.76,-162.60,-1007.32,0.86,-0.13,1.94,-3.30,1.80,-67.35,31.7
2026/04/20 15:39:27.87,IMU,-166.02,-148.44,-1001.95,2.51,0.11,-1.82,-2.55,3.00,-67.80,31.7
2026/04/20 15:39:27.97,IMU,-174.80,-157.71,-1000.00,-0.35,-0.70,2.25,-2.25,1.95,-67.20,31.9
2026/04/20 15:39:28.07,IMU,-167.48,-150.39,-996.09,-2.71,-0.09,0.98,-3.60,1.80,-67.35,32.1
2026/04/20 15:39:28.18,IMU,-167.97,-149.90,-999.51,1.57,1.08,0.24,-3.45,1.20,-67.20,32.1
2026/04/20 15:39:28.28,IMU,-160.16,-146.00,-995.12,-0.65,-0.76,-0.79,-1.05,2.25,-67.05,31.8
2026/04/20 15:39:28.38,IMU,-166.50,-157.71,-999.02,0.34,0.37,0.11,-1.65,1.20,-65.85,31.9
2026/04/20 15:39:28.48,IMU,-167.48,-148.93,-1012.21,-0.13,-2.40,-0.08,-3.75,3.15,-68.25,31.9
2026/04/20 15:39:28.58,IMU,-163.09,-143.55,-1000.00,-0.13,-2.27,0.19,-1.05,2.55,-67.05,32.2
2026/04/20 15:39:28.68,IMU,-168.46,-141.11,-999.02,-0.04,-2.31,0.53,-3.00,1.20,-67.65,32.1
2026/04/20 15:39:28.78,IMU,-175.78,-140.63,-1009.77,-0.24,-0.71,0.59,-3.30,1.50,-66.30,32.1
2026/04/20 15:39:28.88,IMU,-174.32,-155.27,-1000.98,0.04,0.42,1.27,-2.85,2.25,-67.35,31.7
2026/04/20 15:39:28.98,IMU,-166.02,-149.41,-995.61,0.70,1.50,0.17,-2.85,1.05,-66.30,32.1
2026/04/20 15:39:29.08,IMU,-176.27,-163.09,-1000.49,-0.61,-0.94,-1.25,-2.70,1.20,-67.20,32.2
2026/04/20 15:39:29.18,IMU,-163.57,-146.48,-1000.00,0.46,1.26,-2.11,-5.25,-0.45,-62.25,32.4
2026/04/20 15:39:29.28,IMU,-168.95,-150.39,-1000.98,0.48,2.43,2.22,-2.55,2.55,-67.05,32.2
2026/04/20 15:39:29.39,IMU,-160.64,-155.76,-1000.98,0.23,-1.05,-1.98,-2.70,1.65,-67.20,31.9
2026/04/20 15:39:29.49,IMU,-173.83,-146.97,-1002.93,0.83,1.15,1.07,-2.70,1.95,-67.65,32.2
2026/04/20 15:39:29.59,IMU,-164.55,-155.27,-993.65,2.67,-0.51,1.12,-2.70,2.40,-66.90,32.2
2026/04/20 15:39:29.69,IMU,-168.95,-148.93,-1005.37,0.54,1.48,1.98,-1.80,2.25,-67.05,32.2
2026/04/20 15:39:29.79,IMU,-167.97,-154.79,-1008.30,-0.77,0.98,1.72,-3.30,2.25,-68.10,32.2
2026/04/20 15:39:29.89,IMU,-167.48,-149.41,-997.07,-0.89,1.02,-1.27,-2.10,1.80,-68.10,32.1
2026/04/20 15:39:29.99,IMU,-163.09,-146.00,-1011.72,-0.19,-1.48,-1.76,-3.00,1.95,-66.45,32.1
2026/04/20 15:39:30.09,IMU,-154.79,-149.90,-1016.60,1.03,1.63,0.24,-2.85,1.80,-67.35,32.2
2026/04/20 15:39:30.20,IMU,-164.06,-149.41,-1008.30,-1.37,1.87,-1.96,-6.15,-0.30,-62.40,32.0
2026/04/20 15:39:30.30,IMU,-163.57,-165.53,-1005.37,-1.31,-0.08,0.92,-2.10,3.00,-67.05,32.0
2026/04/20 15:39:30.40,IMU,-176.27,-147.95,-1003.42,1.02,0.26,-2.73,-3.30,1.50,-66.30,32.1
2026/04/20 15:39:30.50,IMU,-158.20,-148.93,-1001.46,1.15,-1.10,0.26,-2.25,2.70,-67.20,32.2
2026/04/20 15:39:30.60,IMU,-160.16,-148.93,-1011.23,-0.74,2.25,-0.70,-3.00,3.15,-67.95,32.4
2026/04/20 15:39:30.70,IMU,-164.06,-148.44,-1007.81,-1.08,-0.06,-0.53,-3.45,2.70,-67.65,32.3
2026/04/20 15:39:30.80,IMU,-163.57,-143.55,-1011.72,0.00,-0.94,-1.20,-3.60,3.00,-66.00,31.9
2026/04/20 15:39:30.91,IMU,-172.85,-149.90,-1001.95,1.01,0.51,0.53,-1.80,0.30,-66.30,32.1
2026/04/20 15:39:31.01,IMU,-160.16,-145.51,-1010.74,-0.30,0.11,-1.60,-2.10,1.80,-66.00,32.4
2026/04/20 15:39:31.11,IMU,-162.60,-153.81,-1010.25,0.17,-0.05,-2.85,-2.10,1.50,-66.75,32.2
2026/04/20 15:39:31.21,IMU,-169.43,-152.34,-1012.70,-0.23,1.76,0.71,-1.35,0.30,-66.30,32.1
2026/04/20 15:39:31.31,IMU,-166.99,-162.11,-1008.79,-0.83,1.24,-0.56,-3.45,0.90,-66.90,32.4
2026/04/20 15:39:31.41,IMU,-171.88,-156.74,-1017.09,-0.36,-2.49,2.81,-1.95,-0.90,-67.20,31.9
2026/04/20 15:39:31.51,IMU,-174.32,-153.32,-1002.93,-0.69,-0.85,1.48,-3.30,1.50,-66.75,32.3
2026/04/20 15:39:31.61,IMU,-176.76,-155.76,-999.02,-1.31,-0.42,-0.34,-2.10,1.80,-66.00,32.3
2026/04/20 15:39:31.71,IMU,-166.99,-143.55,-996.09,1.24,-0.31,0.31,-3.60,2.25,-67.05,32.2
2026/04/20 15:39:31.81,IMU,-169.92,-154.30,-1002.44,-1.25,2.03,1.07,-3.00,2.40,-68.70,32.1
2026/04/20 15:39:31.91,IMU,-175.29,-146.00,-1006.35,-0.83,-1.44,-0.21,-2.55,2.25,-67.35,32.4
2026/04/20 15:39:32.01,IMU,-172.85,-136.23,-1003.91,1.31,1.27,-1.15,-3.00,3.60,-67.20,32.2
2026/04/20 15:39:32.11,IMU,-166.99,-157.71,-1003.91,0.79,-0.09,1.69,-1.20,2.70,-66.15,32.4
2026/04/20 15:39:32.21,IMU,-173.83,-146.48,-994.14,-0.72,-0.66,1.87,-2.10,2.55,-67.35,32.2
2026/04/20 15:39:32.31,IMU,-166.99,-156.74,-991.21,1.45,0.86,1.09,-2.55,1.80,-66.75,32.2
2026/04/20 15:39:32.41,IMU,-166.50,-156.74,-994.63,-1.61,-0.24,-1.86,-1.80,1.50,-67.35,32.2
2026/04/20 15:39:32.51,IMU,-175.29,-153.81,-1000.00,0.15,2.76,0.63,-1.80,3.00,-67.80,32.2
2026/04/20 15:39:32.61,IMU,-164.06,-155.27,-997.56,1.69,-0.89,1.11,-2.25,2.40,-67.20,32.4
2026/04/20 15:39:32.71,IMU,-158.20,-151.86,-1000.98,-0.70,1.63,-1.11,-3.90,0.75,-66.30,32.2
2026/04/20 15:39:32.82,IMU,-172.85,-149.90,-993.16,0.70,-0.79,0.60,-2.85,1.50,-66.75,32.1
2026/04/20 15:39:32.92,IMU,-164.06,-144.53,-998.05,-0.99,-0.34,3.08,-3.60,3.30,-66.00,32.6
2026/04/20 15:39:33.02,IMU,-164.06,-148.44,-1002.93,-1.21,0.22,0.17,-1.95,2.70,-66.90,32.2
2026/04/20 15:39:33.12,IMU,-166.50,-151.86,-1000.00,-0.76,0.78,2.15,-3.45,1.65,-68.70,32.2
2026/04/20 15:39:33.22,IMU,-161.13,-147.46,-990.72,-1.40,-0.01,-1.34,-2.70,1.20,-67.65,32.4
2026/04/20 15:39:33.32,IMU,-166.99,-158.20,-1001.46,-1.26,-0.66,-1.95,-3.60,1.50,-67.05,32.4
2026/04/20 15:39:33.42,IMU,-152.83,-144.53,-1002.44,1.25,-0.69,0.24,-3.30,1.80,-67.80,32.3
2026/04/20 15:39:33.52,IMU,-172.85,-146.97,-1000.49,-0.14,0.28,1.68,-2.25,1.20,-67.20,32.6
2026/04/20 15:39:33.62,IMU,-172.85,-143.55,-1004.88,-0.11,0.36,-0.30,-1.35,1.80,-67.05,32.4
2026/04/20 15:39:33.72,IMU,-165.53,-158.69,-992.68,-0.59,-0.97,-0.93,-4.20,3.15,-67.20,32.6
2026/04/20 15:39:33.82,IMU,-164.55,-155.76,-1010.25,-1.25,-3.34,-1.44,-1.80,1.50,-67.35,32.6
2026/04/20 15:39:33.92,IMU,-163.57,-155.76,-994.63,-0.14,0.37,1.81,-2.70,1.20,-67.20,32.4
2026/04/20 15:39:34.02,IMU,-183.11,-144.53,-1002.44,-0.76,-0.21,0.10,-2.10,1.05,-67.05,32.5
2026/04/20 15:39:34.12,IMU,-166.50,-152.34,-1004.88,-1.21,1.01,0.51,-3.30,1.05,-65.55,32.4
2026/04/20 15:39:34.22,IMU,-163.09,-156.25,-993.16,1.44,0.37,-0.73,-3.60,1.80,-66.75,32.6
2026/04/20 15:39:34.33,IMU,-166.50,-146.00,-992.19,2.24,-1.56,2.95,-2.70,1.95,-67.65,32.8
2026/04/20 15:39:34.43,IMU,-156.74,-158.69,-996.58,0.01,-1.63,0.49,-2.70,0.90,-67.20,32.8
2026/04/20 15:39:34.53,IMU,-163.57,-161.13,-996.58,0.31,0.63,0.66,-1.80,1.80,-66.30,32.6
2026/04/20 15:39:34.63,IMU,-158.69,-150.39,-1013.18,-0.47,0.37,0.82,-1.65,0.90,-65.40,32.8
2026/04/20 15:39:34.73,IMU,-164.55,-151.86,-1003.91,0.52,-0.20,-1.18,-1.95,1.65,-65.40,32.7
2026/04/20 15:39:34.83,IMU,-166.50,-153.81,-998.54,0.33,-1.88,-0.26,-2.85,1.80,-67.05,32.7
2026/04/20 15:39:34.93,IMU,-169.92,-150.39,-1007.81,-0.50,-0.08,-2.53,-2.70,1.65,-67.65,32.7
2026/04/20 15:39:35.03,IMU,-166.99,-140.14,-1005.86,0.17,-0.63,-2.90,-1.35,1.80,-68.55,32.4
2026/04/20 15:39:35.13,IMU,-165.04,-154.79,-994.14,-0.38,-0.08,0.31,-2.25,3.60,-67.20,32.6
2026/04/20 15:39:35.23,IMU,-170.90,-145.02,-1000.49,0.50,1.21,-0.15,-3.00,2.40,-65.85,32.8
2026/04/20 15:39:35.34,IMU,-156.74,-143.55,-1002.93,-0.47,0.82,-0.04,-6.15,0.30,-64.95,32.7
2026/04/20 15:39:35.44,IMU,-179.69,-158.20,-998.05,1.24,0.99,-0.31,-2.10,2.55,-65.55,32.8
2026/04/20 15:39:35.54,IMU,-163.09,-155.27,-1001.95,0.39,1.61,-2.11,-1.80,1.80,-66.30,32.8
2026/04/20 15:39:35.64,IMU,-157.71,-156.74,-997.56,-1.57,0.60,0.74,-2.25,1.65,-65.40,32.6
2026/04/20 15:39:35.74,IMU,-167.97,-142.09,-1000.98,0.66,-1.40,0.45,-2.10,2.25,-67.80,32.8
2026/04/20 15:39:35.84,IMU,-182.62,-146.97,-1006.84,2.78,2.02,-0.88,-3.30,2.25,-66.75,32.8
2026/04/20 15:39:35.94,IMU,-165.04,-159.18,-998.54,0.07,-1.57,-1.27,-3.00,1.95,-67.20,32.6
2026/04/20 15:39:36.04,IMU,-171.39,-152.34,-989.26,0.70,-1.15,-0.18,-3.00,1.95,-66.45,32.7
2026/04/20 15:39:36.15,IMU,-162.60,-159.67,-1011.72,-0.99,0.76,2.93,-2.85,0.00,-65.55,32.7
2026/04/20 15:39:36.25,IMU,-181.64,-156.25,-1000.00,-0.12,0.67,-0.79,-2.55,1.05,-67.80,32.8
2026/04/20 15:39:36.35,IMU,-183.11,-157.23,-992.68,-0.27,0.30,0.22,-6.90,0.00,-62.70,32.5
2026/04/20 15:39:36.45,IMU,-175.29,-152.34,-1000.98,0.89,1.44,0.15,-3.30,3.00,-67.35,32.9
2026/04/20 15:39:36.55,IMU,-168.95,-149.90,-998.05,-1.37,-1.80,-1.05,-3.60,1.05,-67.35,32.8
2026/04/20 15:39:36.65,IMU,-168.95,-148.93,-1001.95,0.05,1.87,-0.73,-3.00,1.95,-67.20,32.8
2026/04/20 15:39:36.75,IMU,-157.71,-147.95,-1008.30,0.01,0.76,1.23,-1.80,3.00,-68.10,32.6
2026/04/20 15:39:36.85,IMU,-158.69,-152.83,-1004.88,-0.20,-0.05,-1.01,-1.95,2.40,-66.90,32.9
2026/04/20 15:39:36.95,IMU,-167.48,-152.83,-999.02,-0.23,-0.72,-2.09,-2.10,1.50,-67.35,32.8
2026/04/20 15:39:37.05,IMU,-175.78,-147.95,-1000.98,-1.40,0.60,0.37,-2.85,2.25,-66.30,32.7
2026/04/20 15:39:37.16,IMU,-171.39,-166.50,-994.14,1.54,1.60,0.47,-2.25,3.60,-66.90,32.7
2026/04/20 15:39:37.26,IMU,-167.97,-145.02,-1001.95,0.40,-1.64,-1.41,-2.55,2.25,-66.75,32.7
2026/04/20 15:39:37.37,IMU,-161.62,-147.46,-1011.72,0.50,-0.18,-1.09,-5.25,-0.45,-63.30,32.8
2026/04/20 15:39:37.47,IMU,-161.62,-148.44,-984.38,0.41,-1.89,-0.86,-2.70,1.95,-67.20,33.1
2026/04/20 15:39:37.57,IMU,-161.62,-155.76,-1003.91,-0.47,1.02,-2.51,-3.00,2.70,-67.65,33.1
2026/04/20 15:39:37.67,IMU,-166.02,-155.27,-1000.00,0.27,1.89,-2.00,-1.65,3.60,-67.20,32.9
2026/04/20 15:39:37.77,IMU,-158.69,-147.46,-1002.44,-2.05,-1.12,3.63,-3.00,2.40,-66.90,32.6
2026/04/20 15:39:37.87,IMU,-156.25,-142.09,-1005.86,-0.43,0.42,2.59,-4.20,3.90,-66.15,33.0
2026/04/20 15:39:37.97,IMU,-161.62,-166.50,-999.51,0.70,-1.44,1.05,-2.85,2.25,-66.75,32.9
2026/04/20 15:39:38.07,IMU,-168.46,-150.88,-998.05,-0.02,0.21,0.73,-2.25,1.20,-68.25,33.1
2026/04/20 15:39:38.17,IMU,-174.32,-153.81,-998.54,0.11,0.46,-0.96,-3.30,0.00,-66.75,33.0
2026/04/20 15:39:38.27,IMU,-172.85,-149.90,-1009.77,0.35,2.34,-2.52,-2.25,1.20,-66.45,32.9
2026/04/20 15:39:38.37,IMU,-171.88,-144.53,-1013.67,1.68,0.24,-0.50,-3.00,2.40,-66.90,33.2
2026/04/20 15:39:38.47,IMU,-166.99,-146.00,-1002.93,0.02,-2.96,-1.31,-3.45,0.45,-65.85,33.1
2026/04/20 15:39:38.57,IMU,-153.81,-146.48,-1006.35,-0.56,1.20,1.27,-2.55,1.80,-66.00,32.9
2026/04/20 15:39:38.67,IMU,-166.50,-163.09,-1006.35,0.24,-0.36,-0.35,-3.60,2.25,-67.05,32.7
2026/04/20 15:39:38.78,IMU,-164.55,-146.48,-997.56,-0.92,-1.45,1.98,-1.65,2.40,-67.65,33.2
2026/04/20 15:39:38.88,IMU,-168.46,-156.25,-1001.46,0.82,-0.18,0.24,-4.35,1.50,-67.35,33.1
2026/04/20 15:39:38.98,IMU,-180.66,-149.90,-989.75,-0.98,2.04,0.61,-2.85,2.25,-69.30,33.1
2026/04/20 15:39:39.08,IMU,-173.83,-163.09,-1009.28,0.59,0.24,-1.12,-2.55,1.80,-66.30,32.9
2026/04/20 15:39:39.18,IMU,-161.62,-156.25,-993.16,0.20,-1.73,1.73,-4.35,2.25,-68.55,33.2
2026/04/20 22:40:39.06,IMU,-164.55,-147.46,-994.63,-1.19,0.04,0.01,-2.25,2.40,-67.65,33.1
2026/04/20 22:40:39.16,IMU,-151.86,-156.74,-1004.88,1.98,1.17,2.79,-1.05,1.80,-67.80,33.1
2026/04/20 22:40:39.26,IMU,-176.76,-151.86,-1004.39,0.55,-0.57,-0.16,-2.10,1.05,-67.05,33.3
2026/04/20 22:40:39.36,IMU,-166.99,-145.51,-1000.49,-0.90,1.24,-0.03,-1.65,0.15,-67.20,33.2
2026/04/20 22:40:39.46,IMU,-160.16,-154.79,-1001.95,0.12,-1.65,-2.31,-2.85,0.30,-66.75,33.1
2026/04/20 22:40:39.56,IMU,-169.43,-139.65,-1006.35,0.04,0.71,1.02,-1.95,1.65,-64.65,33.2
2026/04/20 22:40:39.66,IMU,-174.32,-157.23,-991.70,-1.48,-0.72,0.73,-1.65,2.40,-66.90,33.1
2026/04/20 22:40:39.76,IMU,-159.67,-142.09,-1002.93,0.44,1.63,1.89,-1.95,2.40,-66.90,33.3
2026/04/20 22:40:39.86,IMU,-165.53,-138.18,-1007.81,-0.66,1.51,1.79,-3.75,1.65,-66.15,33.3
2026/04/20 22:40:39.96,IMU,-178.71,-153.81,-1002.44,1.25,0.26,-1.05,-1.80,3.00,-68.10,33.3
2026/04/20 22:40:40.06,IMU,-151.37,-142.58,-998.54,0.04,2.76,-0.58,-2.10,2.25,-67.35,33.3
2026/04/20 22:40:40.16,IMU,-171.88,-151.37,-1008.30,0.85,-1.21,-1.18,-3.75,1.20,-66.90,33.3
2026/04/20 22:40:40.26,IMU,-175.78,-157.71,-986.33,-0.23,2.45,-1.50,-3.00,1.20,-66.90,33.1
2026/04/20 22:40:40.37,IMU,-161.13,-150.88,-1009.28,0.34,-1.39,0.72,-1.65,2.40,-65.85,32.9
2026/04/20 22:40:40.47,IMU,-165.53,-143.55,-992.68,0.79,1.62,-1.38,-2.10,2.55,-67.35,33.3
2026/04/20 22:40:40.57,IMU,-158.20,-144.53,-992.68,-0.85,2.18,1.11,-3.90,3.00,-67.05,33.2
2026/04/20 22:40:40.67,IMU,-158.69,-152.34,-1001.46,2.20,-0.54,0.89,-2.55,1.80,-68.10,33.1
2026/04/20 22:40:40.77,IMU,-163.57,-142.58,-1017.58,0.23,-0.51,1.54,-2.25,2.40,-67.20,33.1
2026/04/20 22:40:40.87,IMU,-164.06,-146.00,-996.58,-1.47,1.00,0.84,-2.70,0.90,-66.90,32.8
2026/04/20 22:40:40.97,IMU,-155.27,-152.34,-1006.35,0.19,0.45,-1.66,-3.30,1.05,-66.75,33.1
2026/04/20 22:40:41.07,IMU,-164.06,-154.79,-1017.09,0.53,-0.43,-1.40,-6.90,0.30,-63.15,33.1
2026/04/20 22:40:41.17,IMU,-157.71,-154.30,-1016.11,-2.14,0.49,1.55,-3.45,2.70,-69.00,33.1
2026/04/20 22:40:41.27,IMU,-165.04,-152.83,-1004.88,0.57,-1.13,-0.87,-3.00,0.15,-65.85,33.1
2026/04/20 22:40:41.37,IMU,-170.90,-139.65,-991.21,-1.03,2.83,0.40,-3.00,1.20,-66.15,33.1
2026/04/20 22:40:41.47,IMU,-179.20,-142.09,-1003.42,0.34,1.99,1.01,-1.95,2.40,-67.20,32.8
2026/04/20 22:40:41.57,IMU,-154.30,-158.69,-1007.81,-0.96,-1.69,-0.98,-2.10,2.25,-67.05,33.1
2026/04/20 22:40:41.67,IMU,-165.53,-165.04,-998.54,0.83,-0.68,3.56,-3.75,2.40,-66.45,33.0
2026/04/20 22:40:41.77,IMU,-167.97,-151.37,-993.65,0.12,-0.98,-0.87,-2.70,1.95,-66.45,33.1
2026/04/20 22:40:41.87,IMU,-169.43,-147.95,-984.86,1.11,1.27,2.40,-1.35,1.80,-67.80,32.7
2026/04/20 22:40:41.97,IMU,-165.53,-158.69,-1001.95,-0.53,0.68,-2.13,-3.60,2.25,-67.05,33.3
2026/04/20 22:40:42.07,IMU,-164.55,-156.25,-988.28,1.20,1.22,-1.65,-2.70,3.60,-67.20,33.2
2026/04/20 22:40:42.18,IMU,-169.43,-155.76,-1002.44,2.69,-1.76,-2.46,-2.55,2.25,-66.75,33.3
2026/04/20 22:40:42.28,IMU,-166.02,-159.18,-996.09,-2.37,1.47,0.85,-3.75,-0.90,-62.85,33.3
2026/04/20 22:40:42.38,IMU,-169.43,-140.63,-1000.49,-0.74,-1.95,-0.44,-3.75,1.95,-66.90,33.1
2026/04/20 22:40:42.48,IMU,-166.02,-145.02,-1010.25,1.01,-1.67,-1.67,-0.90,2.40,-66.90,33.2
2026/04/20 22:40:42.58,IMU,-184.57,-148.93,-999.02,0.61,-0.39,0.33,-1.80,2.55,-66.75,33.1
2026/04/20 22:40:42.68,IMU,-174.80,-157.71,-997.07,-0.34,0.97,2.21,-1.80,2.25,-66.30,33.3
2026/04/20 22:40:42.78,IMU,-158.20,-152.83,-1004.88,0.82,-0.20,-0.02,-2.70,1.95,-66.45,33.3
2026/04/20 22:40:42.88,IMU,-160.16,-143.07,-996.58,-0.53,-1.34,-1.34,-2.25,2.40,-67.65,33.1
2026/04/20 22:40:42.98,IMU,-160.64,-162.60,-997.07,0.31,1.18,0.36,-3.60,1.50,-67.35,33.1
2026/04/20 22:40:43.10,IMU,-165.53,-144.04,-1011.72,-1.98,-0.81,-0.76,-2.10,2.25,-68.85,33.2
2026/04/20 22:40:43.20,IMU,-180.66,-146.00,-1008.30,-0.94,0.92,-4.98,-0.90,3.15,-66.15,33.1
2026/04/20 22:40:43.30,IMU,-166.50,-140.63,-1003.91,-1.24,-1.24,-0.16,-5.70,-0.15,-62.55,33.1
2026/04/20 22:40:43.40,IMU,-170.90,-155.76,-991.70,-0.03,1.76,0.89,-2.10,2.55,-66.75,33.2
2026/04/20 22:40:43.50,IMU,-175.29,-143.07,-991.21,-0.69,-0.08,-0.11,-2.55,2.55,-67.05,33.1
2026/04/20 22:40:43.60,IMU,-173.83,-146.97,-1019.53,1.29,-1.08,0.88,-1.80,2.55,-67.05,33.0
2026/04/20 22:40:43.70,IMU,-171.39,-147.95,-1000.00,0.79,-2.13,-1.58,-2.25,1.95,-67.65,33.1
2026/04/20 22:40:43.80,IMU,-173.83,-152.34,-1021.00,-2.53,-0.24,1.53,-2.85,0.75,-66.00,32.7
2026/04/20 22:40:43.90,IMU,-157.23,-145.51,-1004.88,0.41,-2.73,-0.05,-3.45,2.40,-65.85,32.9
2026/04/20 22:40:44.00,IMU,-184.57,-148.93,-996.09,0.38,-0.66,-1.34,-2.85,0.30,-65.55,33.1
2026/04/20 22:40:44.10,IMU,-172.36,-148.93,-1007.81,-0.57,0.00,-0.95,-1.65,2.40,-67.20,33.2
2026/04/20 22:40:44.20,IMU,-162.11,-156.74,-1000.98,0.53,1.47,-0.83,-3.00,1.95,-67.20,33.1
2026/04/20 22:40:44.31,IMU,-168.46,-138.67,-998.05,0.11,0.21,1.43,-6.75,-0.90,-61.50,33.1
2026/04/20 22:40:44.41,IMU,-172.36,-158.69,-998.54,0.32,1.34,0.25,-3.45,2.40,-66.45,33.0
2026/04/20 22:40:44.51,IMU,-162.11,-157.23,-1009.77,0.49,1.40,-3.21,-3.00,1.65,-65.85,33.1
2026/04/20 22:40:44.61,IMU,-172.85,-140.14,-1002.93,-1.50,-3.66,0.40,-2.25,2.40,-67.65,33.1
2026/04/20 22:40:44.71,IMU,-169.43,-147.95,-1001.46,1.89,0.65,-1.47,-2.85,0.75,-67.05,33.1
2026/04/20 22:40:44.81,IMU,-157.23,-150.88,-998.05,0.90,-0.48,-1.11,-2.85,3.30,-67.80,32.9
2026/04/20 22:40:44.91,IMU,-169.43,-156.25,-1004.39,-0.50,-1.23,1.52,-3.60,3.00,-67.05,33.0
2026/04/20 22:40:45.01,IMU,-159.18,-149.90,-1005.86,0.26,-0.71,0.55,-2.55,3.00,-67.05,33.1
2026/04/20 22:40:45.12,IMU,-171.88,-152.83,-1005.86,-0.22,1.93,0.71,-2.25,2.40,-66.15,33.0
2026/04/20 22:40:45.22,IMU,-169.92,-147.46,-996.09,0.73,-1.15,-3.21,-2.85,1.80,-67.05,32.8
2026/04/20 22:40:45.32,IMU,-169.92,-151.37,-1001.46,-0.81,0.49,-0.47,-2.25,1.20,-68.70,32.9
2026/04/20 22:40:45.42,IMU,-170.41,-161.13,-1009.28,-0.16,-0.20,0.11,-3.45,1.95,-67.20,33.1
2026/04/20 22:40:45.52,IMU,-179.69,-171.88,-1000.00,-0.65,-1.15,-1.52,-2.25,2.40,-67.65,32.9
2026/04/20 22:40:45.62,IMU,-166.99,-159.18,-1003.91,-0.08,1.46,1.44,-2.55,3.00,-66.00,32.8
2026/04/20 22:40:45.72,IMU,-181.64,-156.74,-997.56,0.98,1.40,0.56,-2.25,1.95,-66.90,32.8
2026/04/20 22:40:45.82,IMU,-168.46,-143.55,-1004.88,-0.81,1.27,0.21,-2.25,2.40,-67.65,33.1
2026/04/20 22:40:45.93,IMU,-175.78,-152.34,-994.63,0.73,-1.44,0.51,-2.10,-0.75,-63.75,32.7
2026/04/20 22:40:46.03,IMU,-170.90,-162.11,-992.68,-0.27,0.83,0.76,-3.30,1.80,-68.10,32.9
2026/04/20 22:40:46.13,IMU,-166.02,-155.76,-1010.74,0.49,1.00,-0.41,-4.35,3.00,-66.30,32.8
2026/04/20 22:40:46.23,IMU,-171.39,-155.76,-999.51,-0.37,0.43,-0.85,-2.55,1.80,-67.05,32.9
2026/04/20 22:40:46.33,IMU,-162.60,-161.62,-1006.35,1.40,-0.23,1.33,-1.80,2.55,-67.35,32.9
2026/04/20 22:40:46.43,IMU,-171.39,-147.46,-1014.16,-0.92,0.21,1.12,-1.35,2.25,-66.00,32.8
2026/04/20 22:40:46.53,IMU,-163.09,-149.90,-1013.18,-0.32,2.03,0.99,-2.25,1.95,-65.85,32.4
2026/04/20 22:40:46.63,IMU,-165.53,-162.60,-1002.93,-0.80,-0.11,-1.50,-2.55,1.80,-66.30,32.8
2026/04/20 22:40:46.73,IMU,-161.62,-152.83,-1018.07,0.15,-1.21,0.60,-2.70,1.65,-66.15,32.9
2026/04/20 22:40:46.83,IMU,-179.20,-134.77,-1003.42,-0.20,1.81,-0.39,-2.70,1.65,-65.40,32.8
2026/04/20 22:40:46.94,IMU,-166.99,-157.23,-1017.09,-1.05,0.24,-2.90,-2.70,2.40,-67.65,32.8
2026/04/20 22:40:47.04,IMU,-166.99,-155.27,-1009.28,0.56,0.33,-1.33,-2.70,1.95,-66.15,32.5
2026/04/20 22:40:47.14,IMU,-169.92,-150.88,-1002.44,0.76,-0.44,1.08,-2.10,3.30,-67.05,32.8
2026/04/20 22:40:47.24,IMU,-164.55,-142.09,-1000.00,0.80,1.23,-2.88,-3.60,2.55,-66.75,32.7
2026/04/20 22:40:47.34,IMU,-178.22,-149.90,-1004.88,0.34,1.84,1.53,-2.10,1.50,-66.30,32.6
2026/04/20 22:40:47.44,IMU,-169.92,-162.11,-1002.44,-0.47,-1.76,1.53,-3.00,1.95,-66.15,32.9
2026/04/20 22:40:47.54,IMU,-173.83,-153.81,-995.12,-1.29,-0.51,-2.42,-2.25,1.95,-67.20,32.8
2026/04/20 22:40:47.64,IMU,-170.41,-156.74,-1002.93,-0.92,3.41,0.53,-1.05,2.55,-66.30,32.8
2026/04/20 22:40:47.74,IMU,-176.27,-143.55,-1000.00,-1.01,-1.01,-0.04,-2.55,2.25,-66.75,32.7
2026/04/20 22:40:47.84,IMU,-176.27,-140.63,-996.58,-0.81,-0.34,-0.68,-1.95,3.15,-67.95,32.7
2026/04/20 22:40:47.95,IMU,-194.82,-140.63,-988.77,0.36,-2.00,0.31,-3.00,2.40,-66.90,32.6
2026/04/20 22:40:48.05,IMU,-170.41,-158.69,-1004.39,-0.80,0.15,0.90,-3.30,1.05,-66.75,32.6
2026/04/20 22:40:48.15,IMU,-164.06,-160.64,-1011.23,0.89,1.75,0.20,-2.55,0.30,-67.05,32.8
2026/04/20 22:40:48.25,IMU,-179.20,-144.04,-1007.81,1.21,0.73,0.02,-3.45,1.95,-67.95,32.7
2026/04/20 22:40:48.35,IMU,-150.39,-154.30,-1017.58,-2.56,-0.54,-2.11,-1.95,0.90,-69.45,32.8
2026/04/20 22:40:48.45,IMU,-156.25,-158.69,-1013.67,-0.61,0.99,-0.33,-1.35,2.55,-67.35,32.6
2026/04/20 22:40:48.55,IMU,-167.97,-148.93,-1017.09,-1.58,0.85,-2.03,-1.20,0.45,-67.20,32.8
2026/04/20 22:40:48.65,IMU,-174.32,-155.27,-1004.88,-2.01,2.39,-2.74,-2.85,1.50,-68.55,32.6
2026/04/20 22:40:48.75,IMU,-164.55,-138.67,-1004.39,-1.50,-2.73,0.71,-3.60,3.00,-67.35,32.4
2026/04/20 22:40:48.85,IMU,-175.78,-155.27,-1003.42,1.31,0.34,-0.71,-2.55,3.00,-67.05,32.6
2026/04/20 22:40:48.95,IMU,-179.69,-162.11,-998.05,0.84,2.97,-0.70,-1.80,2.25,-66.75,32.6
2026/04/20 22:40:49.05,IMU,-172.85,-148.44,-1017.58,1.92,1.40,-0.52,-3.60,2.25,-66.75,32.6
2026/04/20 22:40:49.15,IMU,-178.22,-152.34,-993.65,1.35,0.78,1.60,-1.65,2.40,-66.45,32.6
2026/04/20 22:40:49.25,IMU,-168.46,-148.93,-1005.86,-0.14,-2.34,-0.12,-4.95,1.65,-67.65,32.7
2026/04/20 22:40:49.35,IMU,-161.13,-144.53,-981.93,0.37,-1.79,-1.82,-0.60,2.55,-66.30,32.7
2026/04/20 22:40:49.45,IMU,-158.20,-165.53,-1009.77,0.45,-1.72,0.37,-2.85,2.55,-67.80,32.6
2026/04/20 22:40:49.55,IMU,-172.36,-163.57,-1007.81,0.76,0.63,-0.73,-2.70,0.90,-65.85,32.6
2026/04/20 22:40:49.66,IMU,-169.43,-153.81,-1028.81,0.23,1.21,3.02,-2.85,1.05,-67.05,32.6
2026/04/20 22:40:49.76,IMU,-178.22,-156.74,-1015.63,-0.47,0.57,0.69,-1.35,1.50,-67.35,32.6
2026/04/20 22:40:49.86,IMU,-178.71,-150.88,-1000.00,0.28,-0.03,0.10,-2.25,-0.15,-66.15,32.4
2026/04/20 22:40:49.96,IMU,-162.60,-143.55,-1005.37,0.05,-0.26,-1.30,-2.70,2.40,-66.45,32.6
2026/04/20 22:40:50.06,IMU,-175.78,-159.67,-1010.25,-0.17,-0.01,0.93,-2.55,1.50,-67.35,32.6
2026/04/20 22:40:50.16,IMU,-164.55,-162.60,-998.05,0.05,-1.07,-1.18,-3.30,1.50,-67.05,32.6
2026/04/20 22:40:50.26,IMU,-188.48,-158.20,-994.14,0.89,-0.02,-1.36,-3.45,1.20,-67.65,32.7
2026/04/20 22:40:50.36,IMU,-168.95,-151.37,-993.16,1.43,-0.71,-2.27,-3.60,1.05,-67.05,32.3
2026/04/20 22:40:50.46,IMU,-161.62,-143.55,-1013.67,-0.04,0.04,0.47,-5.70,-0.45,-61.50,32.3
2026/04/20 22:40:50.56,IMU,-157.23,-154.30,-991.70,0.84,1.80,-1.62,-4.20,2.40,-68.25,32.5
2026/04/20 22:40:50.66,IMU,-178.71,-149.41,-994.63,-1.76,-0.72,1.90,-2.70,0.90,-66.45,32.3
2026/04/20 22:40:50.76,IMU,-172.36,-153.81,-1001.95,0.80,-1.61,-2.95,-2.70,1.95,-67.65,32.4
2026/04/20 22:40:50.86,IMU,-183.11,-158.69,-991.21,0.53,0.22,3.46,-2.85,1.50,-66.00,32.6
2026/04/20 22:40:50.96,IMU,-189.94,-154.30,-1009.28,-0.65,2.54,-1.65,-2.70,1.20,-67.20,32.7
2026/04/20 22:40:51.06,IMU,-173.83,-163.09,-1012.21,-0.94,0.90,0.92,-2.55,1.50,-66.75,32.6
2026/04/20 22:40:51.16,IMU,-172.36,-157.23,-993.65,1.01,-0.91,4.72,-1.80,1.80,-67.35,32.4
2026/04/20 22:40:51.26,IMU,-161.62,-144.04,-994.63,2.27,1.29,1.34,-1.35,2.25,-67.05,32.5
2026/04/20 22:40:51.36,IMU,-163.09,-147.46,-1008.30,-0.97,1.80,-1.79,-3.45,2.40,-66.15,32.2
2026/04/20 22:40:51.47,IMU,-170.90,-142.09,-1000.00,-1.88,0.76,0.61,-6.00,-0.15,-63.30,32.4
2026/04/20 22:40:51.58,IMU,-167.97,-162.60,-1007.81,-0.89,2.95,2.24,-2.25,2.70,-67.65,32.4
2026/04/20 22:40:51.68,IMU,-165.04,-155.76,-994.14,-1.23,0.27,-0.15,-2.55,1.50,-66.75,32.4
2026/04/20 22:40:51.78,IMU,-169.92,-152.34,-1001.46,0.15,-1.37,-1.50,-1.80,1.80,-67.05,32.3
2026/04/20 22:40:51.88,IMU,-169.43,-155.27,-1000.00,1.08,1.40,0.82,-2.55,0.75,-66.30,32.6
2026/04/20 22:40:51.98,IMU,-166.50,-146.48,-1005.37,1.19,2.16,2.33,-3.60,2.55,-67.80,32.4
2026/04/20 22:40:52.08,IMU,-155.27,-151.37,-1012.70,-0.91,1.58,0.97,-1.05,-1.50,-66.00,32.3
2026/04/20 22:40:52.18,IMU,-166.50,-150.88,-1010.74,-1.71,0.31,-0.20,-1.80,1.80,-66.00,32.5
2026/04/20 22:40:52.28,IMU,-184.08,-148.93,-1004.39,-0.75,-1.21,-0.76,-1.20,2.70,-66.90,32.3
2026/04/20 22:40:52.38,IMU,-172.85,-161.62,-1010.25,-0.60,-1.57,-1.57,-1.05,1.05,-67.80,32.5
2026/04/20 22:40:52.50,IMU,-173.34,-150.39,-1007.81,0.02,0.36,-1.76,-4.95,-0.45,-62.25,32.4
2026/04/20 22:40:52.60,IMU,-163.09,-149.90,-1003.42,1.65,-0.66,-1.43,-3.00,1.20,-67.95,32.4
2026/04/20 22:40:52.70,IMU,-162.11,-150.88,-992.19,0.67,-1.87,-0.19,-3.00,2.70,-66.90,32.4
2026/04/20 22:40:52.80,IMU,-162.60,-145.02,-1008.79,0.87,1.34,-1.74,-3.90,2.25,-66.75,32.4
2026/04/20 22:40:52.90,IMU,-170.90,-161.13,-1006.84,0.96,-1.22,1.64,-2.85,1.80,-67.35,32.3
2026/04/20 22:40:53.01,IMU,-163.09,-157.23,-1011.23,1.53,-0.24,3.04,-1.05,3.75,-66.75,32.6
2026/04/20 22:40:53.11,IMU,-165.53,-144.53,-1011.72,1.05,1.55,-1.43,-3.00,1.20,-67.20,32.4
2026/04/20 22:40:53.21,IMU,-169.43,-163.57,-1009.77,0.02,3.05,2.60,-1.65,1.20,-66.45,32.4
2026/04/20 22:40:53.31,IMU,-170.41,-165.04,-992.19,0.38,1.73,1.14,-3.60,2.55,-66.30,32.3
2026/04/20 22:40:53.41,IMU,-168.95,-157.23,-998.54,-1.51,2.34,0.16,-2.25,1.65,-66.15,32.3
2026/04/20 22:40:53.51,IMU,-176.27,-148.44,-1007.32,1.78,1.05,0.21,-1.80,2.55,-68.85,32.2
2026/04/20 22:40:53.61,IMU,-168.95,-139.65,-993.65,0.43,2.50,0.18,-4.20,0.90,-66.45,32.3
2026/04/20 22:40:53.71,IMU,-181.64,-145.02,-989.75,0.50,-1.11,0.81,-2.25,1.95,-66.15,32.2
2026/04/20 22:40:53.81,IMU,-170.41,-132.81,-995.12,-0.44,-0.73,1.56,-4.35,3.00,-65.25,32.4
2026/04/20 22:40:53.91,IMU,-184.08,-151.37,-1017.58,0.92,-0.98,1.56,-2.55,2.55,-67.80,32.3
2026/04/20 22:40:54.01,IMU,-161.13,-151.37,-1014.65,0.44,0.46,1.46,-2.10,1.50,-67.80,32.2
2026/04/20 22:40:54.12,IMU,-172.36,-142.09,-1004.39,-0.79,-0.31,0.06,-2.25,1.65,-66.45,32.1
2026/04/20 22:40:54.22,IMU,-156.25,-149.90,-1012.70,0.75,-1.11,-1.95,-3.75,2.40,-67.20,32.2
2026/04/20 22:40:54.32,IMU,-174.80,-133.79,-1016.60,0.11,1.11,-1.60,-1.20,1.20,-67.65,32.1
2026/04/20 22:40:54.42,IMU,-170.90,-162.60,-1013.18,-0.08,-0.40,1.34,-3.45,0.90,-66.90,32.1
2026/04/20 22:40:54.52,IMU,-172.36,-151.37,-998.05,1.21,0.24,0.34,-3.90,1.80,-67.35,32.2
2026/04/20 22:40:54.62,IMU,-167.97,-154.30,-996.09,-0.97,-1.76,-0.71,-3.00,0.45,-65.85,32.3
2026/04/20 22:40:54.72,IMU,-173.34,-144.04,-1018.55,1.51,1.27,2.31,-2.25,2.40,-66.90,32.1
2026/04/20 22:40:54.82,IMU,-162.11,-160.16,-998.05,0.67,1.74,-0.66,-2.70,2.70,-66.90,32.2
2026/04/20 22:40:54.92,IMU,-177.25,-152.34,-995.12,0.14,0.45,0.44,-3.45,0.90,-67.95,32.3
2026/04/20 22:40:55.02,IMU,-182.13,-151.86,-993.65,-1.90,0.29,-0.98,-2.70,1.20,-66.90,32.1
2026/04/20 22:40:55.12,IMU,-172.85,-135.74,-1001.95,-1.05,0.98,-0.27,-2.70,2.40,-67.20,32.2
2026/04/20 22:40:55.22,IMU,-179.20,-148.44,-1003.42,0.42,1.36,-1.10,-3.00,2.40,-67.20,32.2
2026/04/20 22:40:55.32,IMU,-176.76,-152.34,-1004.88,0.91,-0.37,2.43,-2.85,1.80,-68.10,32.1
2026/04/20 22:40:55.42,IMU,-172.36,-148.93,-1011.23,-2.11,-2.02,1.21,-1.65,2.40,-66.90,32.2
2026/04/20 22:40:55.52,IMU,-160.64,-166.02,-998.05,0.69,0.00,0.18,-2.55,2.25,-67.05,32.3
2026/04/20 22:40:55.62,IMU,-171.88,-161.13,-1006.35,0.12,-1.54,-2.37,-2.55,1.50,-67.05,32.1
2026/04/20 22:40:55.72,IMU,-164.55,-145.02,-989.26,0.21,-1.59,-1.22,-2.70,1.65,-66.90,32.3
2026/04/20 22:40:55.82,IMU,-157.71,-148.93,-1007.81,-0.38,0.11,-1.19,-3.90,2.55,-66.30,31.9
2026/04/20 22:40:55.93,IMU,-157.71,-146.48,-1009.28,0.78,-1.44,-1.76,-1.80,3.30,-65.55,31.9
2026/04/20 22:40:56.03,IMU,-159.18,-159.18,-998.05,0.82,1.07,-1.19,-1.05,2.25,-66.30,32.1
2026/04/20 22:40:56.13,IMU,-168.46,-157.71,-1024.41,-0.58,0.42,-0.37,-2.25,1.20,-67.65,32.1
2026/04/20 22:40:56.23,IMU,-164.55,-146.97,-986.33,-0.40,0.72,-1.69,-3.45,1.20,-66.15,31.9
2026/04/20 22:40:56.33,IMU,-163.09,-143.55,-999.02,0.27,0.51,0.37,-2.55,1.80,-66.75,32.2
2026/04/20 22:40:56.43,IMU,-190.92,-145.51,-1008.30,1.66,1.01,-1.14,-2.70,1.95,-66.90,32.2
2026/04/20 22:40:56.53,IMU,-178.22,-152.34,-1001.95,1.52,1.62,-0.31,-2.85,1.50,-69.30,32.0
2026/04/20 22:40:56.63,IMU,-161.62,-154.79,-1005.86,0.76,-0.48,0.60,-0.90,1.20,-66.90,32.1
2026/04/20 22:40:56.73,IMU,-185.55,-156.74,-1018.07,1.18,-0.63,-3.57,-1.35,2.55,-66.75,31.7
2026/04/20 22:40:56.83,IMU,-176.27,-146.48,-1013.18,-2.24,1.22,0.99,-2.25,1.95,-67.20,32.0
2026/04/20 22:40:56.94,IMU,-154.79,-153.81,-1002.93,1.11,2.38,-0.82,-2.10,1.50,-66.75,32.1
2026/04/20 22:40:57.05,IMU,-175.29,-160.64,-1001.95,-1.23,1.11,1.47,-1.05,3.00,-66.75,32.0
2026/04/20 22:40:57.15,IMU,-167.48,-146.97,-1002.44,0.71,-0.23,1.30,-2.10,1.80,-66.30,32.0
2026/04/20 22:40:57.25,IMU,-166.50,-144.53,-1013.67,2.09,0.81,-1.02,-1.05,2.25,-67.05,32.2
2026/04/20 22:40:57.35,IMU,-170.41,-154.30,-999.02,-0.99,1.61,-0.01,-3.45,1.65,-67.95,32.1
2026/04/20 22:40:57.45,IMU,-197.27,-164.06,-1007.81,1.27,-0.92,-1.89,-1.80,2.25,-66.30,32.2
2026/04/20 22:40:57.55,IMU,-187.99,-149.90,-1002.44,1.00,0.33,-0.91,-2.25,2.70,-67.65,32.1
2026/04/20 22:40:57.65,IMU,-181.15,-148.44,-990.23,1.45,1.97,0.18,-2.25,2.40,-66.15,32.0
2026/04/20 22:40:57.75,IMU,-181.15,-156.25,-1002.44,1.91,-1.25,0.79,-2.25,3.60,-66.90,32.2
2026/04/20 22:40:57.85,IMU,-171.88,-149.90,-999.51,0.95,2.66,-0.63,-2.70,1.95,-67.65,32.2
2026/04/20 22:40:57.95,IMU,-172.85,-149.41,-1004.88,-0.13,0.31,-3.19,-2.55,2.25,-67.35,32.0
2026/04/20 22:40:58.05,IMU,-180.18,-154.30,-1008.30,-0.66,-1.94,-0.72,-2.85,1.05,-67.35,31.9
2026/04/20 22:40:58.15,IMU,-170.41,-149.90,-1000.49,-1.29,0.34,1.93,-1.35,3.00,-67.80,31.9
2026/04/20 22:40:58.25,IMU,-164.55,-149.41,-1000.49,1.16,2.37,-2.63,-2.55,1.80,-67.05,32.1
2026/04/20 22:40:58.35,IMU,-164.06,-144.04,-994.14,-1.15,1.65,2.79,-2.85,2.55,-67.35,32.2
2026/04/20 22:40:58.45,IMU,-167.48,-143.55,-995.61,-0.38,-1.82,-0.47,-3.45,1.20,-67.20,32.2
2026/04/20 22:40:58.55,IMU,-166.99,-163.57,-994.14,-0.44,1.13,2.06,-1.80,3.00,-66.75,32.2
2026/04/20 22:40:58.65,IMU,-161.62,-152.34,-1004.39,-0.79,0.29,-2.41,-6.30,0.90,-64.05,32.1
2026/04/20 22:40:58.75,IMU,-160.16,-150.39,-1002.93,0.13,0.08,-0.82,-2.25,2.40,-66.45,32.2
2026/04/20 22:40:58.86,IMU,-162.11,-139.65,-998.54,0.70,0.05,-0.57,-1.95,3.15,-66.15,32.2
2026/04/20 22:40:58.96,IMU,-172.85,-153.81,-1004.39,0.82,0.49,-0.83,-2.55,2.25,-64.50,32.2
2026/04/20 22:40:59.06,IMU,-165.04,-145.51,-998.54,-1.37,-1.05,1.66,-2.70,0.90,-66.45,32.2
2026/04/20 22:40:59.16,IMU,-158.20,-161.62,-1001.95,0.05,0.04,0.50,-1.95,0.90,-66.90,32.0
2026/04/20 22:40:59.26,IMU,-164.55,-137.21,-994.63,-1.25,-0.18,-0.09,-2.55,1.50,-67.35,32.2
2026/04/20 22:40:59.36,IMU,-176.27,-157.23,-997.56,-0.92,0.09,0.90,-2.10,2.25,-67.35,31.9
2026/04/20 22:40:59.46,IMU,-178.71,-150.88,-1003.91,-1.17,1.15,-0.85,-2.85,1.50,-67.35,31.8
2026/04/20 22:40:59.56,IMU,-181.15,-156.25,-1002.44,2.04,0.94,0.95,-2.55,2.25,-67.35,32.0
2026/04/20 22:40:59.67,IMU,-163.09,-157.71,-994.63,0.50,0.81,1.05,-1.05,2.25,-66.30,31.9
2026/04/20 22:40:59.77,IMU,-154.30,-150.39,-1003.42,1.20,1.39,1.85,-1.95,1.20,-68.25,31.7
2026/04/20 22:40:59.87,IMU,-165.04,-149.90,-1005.37,-0.59,0.05,-0.12,-1.95,2.40,-65.85,32.0
2026/04/20 22:40:59.97,IMU,-170.90,-153.32,-1006.35,0.82,-0.60,1.99,-2.25,0.45,-67.65,32.0
2026/04/20 22:41:00.07,IMU,-172.85,-139.65,-1001.46,-0.85,1.40,1.53,-1.80,1.50,-66.75,31.9
2026/04/20 22:41:00.17,IMU,-172.85,-151.86,-1003.91,-1.28,0.21,0.05,-3.30,2.25,-67.80,31.9
2026/04/20 22:41:00.27,IMU,-159.18,-153.32,-1010.74,2.21,-3.31,0.66,-3.45,2.40,-67.95,31.9
2026/04/20 22:41:00.37,IMU,-165.53,-151.37,-998.05,0.53,1.15,-0.89,-2.10,0.75,-67.80,32.1
2026/04/20 22:41:00.47,IMU,-165.04,-153.32,-998.05,0.86,0.75,0.42,-3.45,2.40,-67.95,31.7
2026/04/20 22:41:00.57,IMU,-172.36,-139.65,-1008.30,0.76,-1.34,-0.98,-2.55,1.50,-66.30,32.0
2026/04/20 22:41:00.68,IMU,-166.02,-146.48,-999.02,0.14,0.11,-1.24,-1.95,1.95,-65.40,32.2
2026/04/20 22:41:00.78,IMU,-177.25,-145.02,-991.70,0.58,1.10,-1.03,-1.65,2.40,-67.20,32.2
2026/04/20 22:41:00.88,IMU,-163.57,-165.53,-1000.98,0.16,0.62,0.07,-2.70,2.70,-68.25,32.2
2026/04/20 22:41:00.98,IMU,-159.18,-147.95,-1011.23,-2.15,0.57,-2.31,-2.85,1.80,-66.30,31.9
2026/04/20 22:41:01.08,IMU,-183.11,-154.30,-1005.86,0.48,0.53,-3.19,-2.55,1.80,-67.05,32.1
2026/04/20 22:41:01.18,IMU,-184.57,-142.09,-994.14,0.47,-0.15,-0.63,-2.25,0.90,-66.45,32.2
2026/04/20 22:41:01.28,IMU,-185.06,-153.32,-1000.00,-0.82,-1.06,-0.82,-2.55,2.55,-67.80,32.0
2026/04/20 22:41:01.38,IMU,-180.66,-147.95,-1003.42,0.97,-0.87,0.90,-2.25,2.70,-67.20,32.1
2026/04/20 22:41:01.48,IMU,-161.13,-149.41,-996.09,-0.51,-0.12,-0.70,-3.90,2.25,-67.80,32.1
2026/04/20 22:41:01.58,IMU,-157.71,-137.21,-989.26,-0.81,-2.34,-1.18,-2.10,1.80,-66.00,32.1
2026/04/20 22:41:01.68,IMU,-162.60,-149.90,-1011.72,1.00,-0.95,0.02,-2.10,2.25,-67.35,31.9
2026/04/20 22:41:01.78,IMU,-161.13,-152.34,-985.84,0.79,1.16,0.11,-2.85,2.25,-65.55,31.9
2026/04/20 22:41:01.88,IMU,-158.69,-165.04,-997.56,0.05,-2.34,0.15,-2.70,3.15,-66.15,31.9
2026/04/20 22:41:01.98,IMU,-174.32,-153.32,-997.07,-1.34,0.45,-0.31,-3.30,3.00,-67.05,32.1
2026/04/20 22:41:02.10,IMU,-163.57,-146.00,-1002.93,0.59,0.27,0.31,-1.80,2.25,-67.05,31.9
2026/04/20 22:41:02.20,IMU,-171.88,-155.27,-1013.67,2.75,-1.92,2.04,-2.10,1.05,-68.10,32.1
2026/04/20 22:41:02.30,IMU,-180.66,-149.90,-1019.53,0.69,-1.76,0.18,-1.65,1.65,-67.65,31.9
2026/04/20 22:41:02.40,IMU,-168.95,-158.20,-1003.91,-0.03,0.11,-0.04,-2.85,2.25,-65.55,31.9
2026/04/20 22:41:02.50,IMU,-174.80,-140.14,-1010.74,0.24,0.55,2.60,-2.55,1.05,-66.75,31.7
2026/04/20 22:41:02.60,IMU,-167.97,-146.00,-1012.21,0.40,-2.80,-0.61,-2.85,1.80,-67.05,31.9
2026/04/20 22:41:02.70,IMU,-176.27,-150.88,-1020.02,0.95,0.93,-0.51,-3.90,2.25,-66.75,31.9
2026/04/20 22:41:02.80,IMU,-161.62,-139.16,-1008.79,-1.73,0.46,-0.29,-2.55,1.50,-67.80,31.7
2026/04/20 22:41:02.90,IMU,-159.18,-145.51,-1001.46,-1.85,-1.49,-3.05,-1.80,0.75,-64.95,31.9
2026/04/20 22:41:03.00,IMU,-176.76,-156.25,-1004.39,-0.39,-0.44,-0.79,-2.55,3.30,-66.30,31.5
2026/04/20 22:41:03.10,IMU,-180.66,-149.90,-975.59,-1.77,-0.98,0.68,-2.10,3.75,-67.80,31.9
2026/04/20 22:41:03.20,IMU,-154.30,-155.76,-1022.95,-0.04,5.53,-0.56,-1.20,3.60,-67.20,31.6
2026/04/20 22:41:03.30,IMU,-175.29,-149.41,-1007.81,0.47,-0.50,-2.74,-1.65,1.65,-67.20,31.8
2026/04/20 22:41:03.40,IMU,-174.80,-156.74,-1014.16,-0.61,3.69,1.16,-2.10,2.55,-65.55,31.8
2026/04/20 22:41:03.50,IMU,-192.38,-166.02,-995.61,0.79,2.44,-0.44,-1.65,2.40,-66.45,31.8
2026/04/20 22:41:03.60,IMU,-185.06,-168.95,-987.30,0.50,-0.69,0.31,-2.70,1.65,-67.65,31.4
2026/04/20 22:41:03.71,IMU,-189.45,-142.09,-995.12,2.40,1.21,1.12,-2.70,2.70,-67.20,31.2
2026/04/20 22:41:03.81,IMU,-165.53,-157.23,-1007.81,0.68,3.31,0.96,-1.95,1.20,-67.95,31.7
2026/04/20 22:41:03.91,IMU,-157.23,-147.95,-1000.49,0.94,-3.08,0.10,-2.70,1.20,-68.25,31.3
2026/04/20 22:41:04.01,IMU,-157.23,-146.00,-999.51,0.31,-0.23,-0.85,-2.85,2.25,-66.75,31.7
2026/04/20 22:41:04.11,IMU,-171.88,-152.83,-1007.81,-1.18,0.50,-1.93,-1.80,4.50,-67.05,31.6
2026/04/20 22:41:04.21,IMU,-175.29,-146.48,-1007.81,-1.97,-1.19,0.27,-3.90,3.30,-65.55,31.5
2026/04/20 22:41:04.31,IMU,-166.50,-157.71,-1012.70,-1.23,-0.31,-1.15,-2.55,1.05,-66.75,31.7
2026/04/20 22:41:04.41,IMU,-175.78,-163.09,-1001.95,-1.08,0.85,-0.31,-2.10,1.80,-67.05,31.7
2026/04/20 22:41:04.51,IMU,-196.78,-150.88,-1009.28,0.90,0.32,-1.25,-2.85,2.55,-67.80,31.7
2026/04/20 22:41:04.61,IMU,-176.76,-147.46,-1013.67,1.30,0.20,0.82,-1.95,1.95,-66.45,31.5
2026/04/20 22:41:04.71,IMU,-183.11,-157.71,-1000.49,1.22,1.11,0.29,-3.00,1.65,-66.15,31.6
2026/04/20 22:41:04.81,IMU,-157.23,-156.25,-1000.00,-0.24,0.49,-0.67,-3.30,2.55,-67.05,31.7
2026/04/20 22:41:04.91,IMU,-172.85,-150.88,-994.14,-0.98,-1.31,0.12,-2.85,1.80,-66.75,31.7
2026/04/20 22:41:05.01,IMU,-174.32,-153.32,-1007.81,-0.69,0.32,0.34,-2.85,1.80,-66.30,31.7
2026/04/20 22:41:05.11,IMU,-177.25,-157.71,-1013.18,-0.24,0.69,2.90,-2.10,2.55,-67.05,31.7
2026/04/20 22:41:05.21,IMU,-175.78,-148.93,-999.02,-1.11,-1.11,0.03,-2.85,3.00,-67.35,31.7
2026/04/20 22:41:05.31,IMU,-151.86,-149.41,-1006.84,1.15,0.92,0.37,-1.35,2.55,-65.25,31.5
2026/04/20 22:41:05.41,IMU,-163.09,-142.09,-998.54,0.58,-0.79,4.73,-3.60,2.55,-67.80,31.7
2026/04/20 22:41:05.51,IMU,-166.50,-152.83,-1006.35,0.09,0.15,0.25,-2.25,1.95,-66.45,31.5
2026/04/20 22:41:05.62,IMU,-165.53,-150.39,-1013.18,0.34,-0.56,-0.98,-2.70,4.35,-66.45,31.7
2026/04/20 22:41:05.72,IMU,-172.85,-156.74,-1010.74,1.08,3.04,1.84,-3.75,1.65,-67.20,31.7
2026/04/20 22:41:05.82,IMU,-167.48,-160.64,-997.56,0.48,-1.27,-2.15,-3.90,0.75,-66.00,31.5
2026/04/20 22:41:05.92,IMU,-167.97,-142.09,-1004.88,0.58,-0.05,0.92,-2.10,3.00,-67.35,31.6
2026/04/20 22:41:06.02,IMU,-169.92,-144.53,-993.65,1.47,-0.41,-0.26,-3.45,2.70,-65.85,31.6
2026/04/20 22:41:06.12,IMU,-166.99,-151.86,-1001.46,1.42,2.41,3.12,-2.85,3.00,-68.10,31.4
2026/04/20 22:41:06.22,IMU,-170.41,-145.02,-998.05,-0.58,1.59,-0.79,-3.30,1.80,-67.35,31.4
2026/04/20 22:41:06.32,IMU,-165.53,-155.76,-995.61,-0.51,-1.21,0.01,-3.00,3.60,-66.15,31.9
2026/04/20 22:41:06.42,IMU,-184.57,-153.81,-1011.72,2.79,0.18,-0.10,-1.95,2.70,-67.20,32.0
2026/04/20 22:41:06.52,IMU,-173.34,-150.88,-1012.70,-2.09,-0.76,1.14,-2.55,2.55,-67.05,31.7
2026/04/20 22:41:06.62,IMU,-159.67,-150.88,-1000.49,0.02,1.15,-2.30,-2.10,3.00,-67.80,31.7
2026/04/20 22:41:06.72,IMU,-168.95,-149.41,-1004.88,-1.15,-2.19,-2.27,-2.55,1.80,-67.80,31.5
2026/04/20 22:41:06.83,IMU,-167.97,-147.46,-1017.58,-1.66,-2.06,1.15,-4.65,-1.80,-62.40,31.8
2026/04/20 22:41:06.93,IMU,-166.99,-166.50,-989.75,0.63,0.25,0.56,-3.45,3.15,-66.45,31.9
2026/04/20 22:41:07.03,IMU,-178.22,-150.39,-1003.42,-0.97,1.94,3.13,-3.30,2.55,-68.55,31.7
2026/04/20 22:41:07.13,IMU,-170.90,-162.60,-1000.49,-0.79,0.38,0.02,-2.85,1.05,-67.35,31.5
2026/04/20 22:41:07.23,IMU,-178.22,-154.30,-994.14,0.96,-1.00,1.13,-4.20,2.40,-66.90,31.7
2026/04/20 22:41:07.34,IMU,-161.62,-154.30,-989.26,-0.26,1.56,-0.82,-3.00,1.95,-66.90,31.9
2026/04/20 22:41:07.44,IMU,-159.18,-156.74,-998.05,-0.94,-0.51,-1.06,-1.95,2.70,-67.65,31.8
2026/04/20 22:41:07.54,IMU,-155.27,-153.32,-1004.39,0.98,-0.25,1.48,-2.55,3.75,-67.80,31.7
2026/04/20 22:41:07.64,IMU,-168.46,-166.50,-1004.88,-0.24,-1.02,-0.62,-1.80,2.55,-67.80,31.5
2026/04/20 22:41:07.74,IMU,-173.83,-148.44,-996.09,1.42,-0.97,1.95,-2.25,4.35,-65.85,31.5
2026/04/20 22:41:07.84,IMU,-169.43,-165.53,-997.07,-0.97,1.96,1.50,-2.10,-0.30,-67.05,31.9
2026/04/20 22:41:07.94,IMU,-179.69,-157.71,-1002.93,0.22,1.30,-0.31,-3.45,1.95,-66.15,31.7
2026/04/20 22:41:08.04,IMU,-167.48,-159.18,-1012.21,-1.20,-0.95,-1.15,-3.45,0.15,-66.15,31.7
2026/04/20 22:41:08.14,IMU,-168.95,-155.27,-1006.84,0.89,0.26,0.15,-2.25,1.65,-67.20,31.6
2026/04/20 22:41:08.24,IMU,-164.55,-145.51,-1016.60,0.74,-0.18,-1.04,-1.05,2.25,-68.10,31.7
2026/04/20 22:41:08.34,IMU,-170.41,-145.51,-1006.84,0.59,1.89,2.50,-1.35,2.25,-67.80,31.5
2026/04/20 22:41:08.44,IMU,-160.64,-152.34,-1006.35,0.10,1.11,-0.82,-3.60,1.80,-66.75,31.6
2026/04/20 22:41:08.54,IMU,-179.69,-147.95,-1002.93,-0.85,-0.05,0.54,-2.70,1.95,-66.90,31.9
2026/04/20 22:41:08.64,IMU,-174.80,-156.74,-998.05,1.51,-1.50,-0.92,-2.55,1.80,-67.35,31.7
2026/04/20 22:41:08.74,IMU,-171.39,-141.60,-1019.04,1.24,-0.96,1.91,-1.95,3.15,-66.90,31.8
2026/04/20 22:41:08.84,IMU,-174.80,-153.32,-1013.67,-0.47,1.05,-0.37,-1.05,3.30,-66.75,31.7
2026/04/20 22:41:08.94,IMU,-164.06,-145.02,-999.51,0.03,0.21,0.95,-2.85,2.25,-68.55,31.7
2026/04/20 22:41:09.04,IMU,-175.29,-150.39,-1006.35,-1.53,0.22,0.60,-2.10,0.00,-67.80,31.4
2026/04/20 22:41:09.14,IMU,-173.34,-146.97,-998.05,-0.45,1.08,-1.68,-2.25,1.20,-66.90,31.7
2026/04/20 22:41:09.25,IMU,-172.36,-160.16,-1005.86,-0.63,0.61,1.03,-1.35,3.30,-67.05,31.7
2026/04/20 22:41:09.35,IMU,-173.34,-147.46,-1017.58,1.11,0.14,0.26,-2.55,1.80,-67.80,31.5
2026/04/20 22:41:09.45,IMU,-173.34,-155.27,-1005.37,0.62,-0.61,1.81,-2.55,2.55,-67.35,31.5
2026/04/20 22:41:09.55,IMU,-169.43,-156.25,-1002.93,0.64,0.28,1.53,-2.85,0.75,-66.30,31.6
2026/04/20 22:41:09.65,IMU,-168.46,-143.55,-993.16,-0.37,-1.05,-0.92,-2.55,1.80,-66.00,31.4
2026/04/20 22:41:09.75,IMU,-168.95,-134.28,-1016.11,1.35,-3.31,-0.15,-1.80,1.80,-66.30,31.7
2026/04/20 22:41:09.85,IMU,-171.88,-151.37,-1015.63,0.62,0.55,1.13,-2.10,2.25,-67.80,31.5
2026/04/20 22:41:09.95,IMU,-178.71,-150.39,-995.61,-0.44,0.47,-0.54,-1.80,1.80,-66.75,31.7
2026/04/20 22:41:10.05,IMU,-174.32,-164.06,-1006.84,-0.73,-0.82,-2.98,-3.45,2.40,-66.45,31.8
2026/04/20 22:41:10.15,IMU,-180.66,-163.09,-1008.79,2.02,3.05,1.81,-2.85,2.55,-66.75,31.5
2026/04/20 22:41:10.25,IMU,-177.73,-153.81,-996.09,-2.25,-1.05,-0.90,-2.10,2.55,-67.05,31.5
2026/04/20 22:41:10.35,IMU,-170.41,-144.53,-999.02,-0.47,-0.05,-0.76,-1.65,1.95,-66.45,31.3
2026/04/20 22:41:10.45,IMU,-176.76,-154.30,-1008.30,0.43,0.62,1.65,-2.10,2.55,-68.10,31.2
2026/04/20 22:41:10.55,IMU,-165.53,-150.88,-1005.37,-1.82,-1.06,2.71,-2.70,3.15,-67.20,31.6
2026/04/20 22:41:10.65,IMU,-162.11,-146.00,-995.61,0.13,-0.52,1.11,-3.90,2.25,-68.10,31.5
2026/04/20 22:41:10.75,IMU,-166.99,-151.37,-1012.70,0.42,-0.21,1.98,-1.65,2.70,-67.95,31.5
2026/04/20 22:41:10.85,IMU,-168.95,-152.83,-1006.35,-1.62,-1.37,1.79,-2.85,2.55,-67.05,31.3
2026/04/20 22:41:10.96,IMU,-175.29,-147.46,-1005.37,0.37,-0.77,0.11,-3.00,1.65,-66.90,31.5
2026/04/20 22:41:11.07,IMU,-159.67,-146.97,-990.72,-0.08,2.44,0.10,-1.80,1.80,-66.30,31.8
2026/04/20 22:41:11.17,IMU,-166.99,-158.69,-1000.00,-0.45,0.31,1.16,-2.70,1.20,-66.15,31.7
2026/04/20 22:41:11.27,IMU,-171.39,-153.32,-994.63,0.64,-0.61,-0.76,-3.75,1.95,-66.15,31.7
2026/04/20 22:41:11.37,IMU,-174.32,-160.64,-1001.46,0.26,1.37,0.24,-3.30,2.55,-67.35,31.7
2026/04/20 22:41:11.47,IMU,-169.92,-146.97,-1006.84,0.47,0.39,0.44,-1.95,1.95,-66.90,31.3
2026/04/20 22:41:11.57,IMU,-180.66,-167.97,-998.54,-1.90,0.26,-1.56,-2.10,1.05,-68.10,31.4
2026/04/20 22:41:11.67,IMU,-165.53,-148.44,-1015.14,0.06,0.82,0.21,-2.85,1.80,-65.55,31.3
2026/04/20 22:41:11.77,IMU,-163.09,-140.63,-990.72,-1.55,2.72,-0.82,-3.45,2.40,-66.90,31.7
2026/04/20 22:41:11.87,IMU,-177.73,-146.97,-1002.93,1.33,-0.31,2.04,-2.25,1.20,-66.90,31.7
2026/04/20 22:41:11.97,IMU,-170.90,-156.25,-988.28,1.20,1.41,0.63,-2.25,0.90,-67.65,31.6
2026/04/20 22:41:12.07,IMU,-178.71,-144.53,-997.56,-2.36,-0.88,0.78,-2.85,1.80,-67.05,31.7
2026/04/20 22:41:12.17,IMU,-175.29,-166.99,-1005.37,1.11,-0.69,-0.60,-3.30,1.05,-68.10,31.7
2026/04/20 22:41:12.27,IMU,-164.55,-138.18,-994.63,-1.86,0.37,0.06,-3.45,0.90,-66.90,31.7
2026/04/20 22:41:12.37,IMU,-165.53,-155.27,-992.19,-0.50,-0.02,-1.47,-1.95,1.65,-66.45,31.7
2026/04/20 22:41:12.48,IMU,-169.92,-156.74,-1002.93,0.68,0.88,-1.19,-3.00,1.95,-67.20,31.7
2026/04/20 22:41:12.58,IMU,-171.88,-158.69,-997.07,0.21,1.53,0.47,-3.30,2.25,-67.80,31.6
2026/04/20 22:41:12.68,IMU,-165.53,-156.25,-1004.39,2.31,0.41,1.77,-3.00,3.15,-67.65,31.6
2026/04/20 22:41:12.78,IMU,-164.06,-144.04,-1003.42,2.15,0.46,-1.12,-3.30,2.55,-67.35,31.6
2026/04/20 22:41:12.88,IMU,-166.50,-147.46,-1001.95,0.71,0.61,1.70,-2.70,2.40,-67.20,31.7
2026/04/20 22:41:12.98,IMU,-150.88,-150.39,-1012.70,0.43,0.15,-2.54,-2.10,-1.05,-66.00,31.7
2026/04/20 22:41:13.08,IMU,-155.27,-158.20,-997.07,-0.28,-0.92,-3.14,-2.85,3.75,-66.00,31.7
2026/04/20 22:41:13.18,IMU,-176.76,-151.37,-1006.35,0.44,2.13,-1.82,-2.85,2.25,-67.05,31.8
2026/04/20 22:41:13.28,IMU,-174.80,-158.20,-998.05,2.18,2.11,0.89,-1.80,1.80,-68.55,31.7
2026/04/20 22:41:13.38,IMU,-165.04,-157.71,-991.70,1.57,0.54,-0.18,-1.95,0.45,-67.65,31.5
2026/04/20 22:41:13.48,IMU,-163.57,-142.58,-1005.86,0.08,1.64,1.79,-3.75,1.95,-66.15,31.8
2026/04/20 22:41:13.58,IMU,-166.99,-145.51,-1008.79,-0.40,-1.84,-2.23,-1.35,2.55,-67.35,31.7
2026/04/20 22:41:13.68,IMU,-163.09,-140.14,-998.05,0.50,0.37,0.41,-2.10,3.00,-67.05,31.8
2026/04/20 22:41:13.78,IMU,-172.85,-140.14,-1000.98,-0.16,-0.05,0.58,-2.10,1.50,-66.00,31.7
2026/04/20 22:41:13.88,IMU,-164.55,-162.60,-996.58,1.98,1.04,2.11,-3.60,2.25,-67.05,31.6
2026/04/20 22:41:14.00,IMU,-173.83,-144.04,-997.07,0.63,1.00,-1.47,-5.85,-0.75,-61.95,31.8
2026/04/20 22:41:14.10,IMU,-178.22,-138.67,-1013.67,-1.24,-1.92,1.25,-1.95,2.70,-65.85,31.5
2026/04/20 22:41:14.20,IMU,-168.46,-144.53,-1008.30,-0.16,-1.92,1.40,-3.60,3.00,-67.05,31.7
2026/04/20 22:41:14.30,IMU,-165.53,-143.55,-998.54,1.76,-0.05,1.05,-3.30,2.25,-66.75,31.7
2026/04/20 22:41:14.40,IMU,-172.36,-144.53,-1000.49,0.15,1.40,-0.72,-1.95,0.45,-67.65,31.9
2026/04/20 22:41:14.50,IMU,-166.02,-153.81,-991.21,0.31,0.69,0.44,-2.70,1.95,-65.85,31.5
2026/04/20 22:41:14.60,IMU,-165.04,-149.90,-1006.35,0.78,0.02,0.58,-1.65,0.15,-67.65,31.3
2026/04/20 22:41:14.70,IMU,-166.02,-160.16,-994.14,0.18,0.50,-1.44,-1.35,3.30,-66.30,31.9
2026/04/20 22:41:14.80,IMU,-168.46,-146.00,-1001.95,-1.17,0.00,1.93,-2.25,2.70,-67.65,31.7
2026/04/20 22:41:14.90,IMU,-170.90,-155.27,-986.82,-0.62,-0.12,-1.65,-2.25,1.20,-66.45,31.9
2026/04/20 22:41:15.00,IMU,-184.08,-156.74,-1003.42,0.31,-0.64,-0.11,-2.10,1.80,-66.00,31.7
2026/04/20 22:41:15.10,IMU,-174.80,-157.23,-1005.86,-1.10,1.33,1.05,-2.55,1.80,-66.30,31.5
2026/04/20 22:41:15.20,IMU,-179.20,-150.88,-1000.00,0.74,-0.33,-1.98,-1.65,2.70,-66.90,31.7
2026/04/20 22:41:15.30,IMU,-172.85,-149.41,-1009.28,1.75,-0.79,-2.11,-2.55,1.80,-66.30,31.8
2026/04/20 22:41:15.40,IMU,-174.80,-155.27,-999.02,0.79,0.24,-0.38,-1.05,0.75,-66.30,31.9
2026/04/20 22:41:15.51,IMU,-182.13,-147.46,-995.12,-1.15,0.26,0.52,-1.05,3.00,-68.10,31.7
2026/04/20 22:41:15.61,IMU,-161.13,-160.16,-1012.21,0.28,-0.18,0.27,-3.30,2.25,-65.55,32.0
2026/04/20 22:41:15.71,IMU,-171.39,-146.00,-997.56,0.33,0.12,-3.40,-3.30,3.00,-68.10,32.0
2026/04/20 22:41:15.81,IMU,-178.71,-148.44,-998.54,-0.51,-0.26,1.03,-2.25,1.20,-68.25,31.7
2026/04/20 22:41:15.91,IMU,-165.53,-147.46,-1007.81,1.20,0.53,0.69,-2.85,1.80,-67.35,31.7
2026/04/20 22:41:16.01,IMU,-175.29,-140.63,-1013.67,0.33,0.40,-3.24,-0.90,2.70,-67.20,31.8
2026/04/20 22:41:16.11,IMU,-180.18,-152.83,-994.14,0.11,0.63,-1.10,-1.95,2.70,-67.20,31.9
2026/04/20 22:41:16.21,IMU,-170.90,-152.34,-996.58,0.74,-1.63,0.85,-2.10,3.30,-67.05,31.9
2026/04/20 22:41:16.31,IMU,-179.69,-150.88,-1002.44,-0.33,-0.09,-1.89,-1.65,2.40,-65.40,31.9
2026/04/20 22:41:16.41,IMU,-171.39,-147.95,-1010.25,0.00,1.35,1.23,-1.20,1.20,-66.90,31.6
2026/04/20 22:41:16.51,IMU,-160.16,-152.34,-1016.11,-0.50,1.66,-0.27,-3.30,1.80,-67.35,31.7
2026/04/20 22:41:16.61,IMU,-177.25,-146.97,-996.58,-0.15,0.09,0.49,-1.95,1.20,-66.15,31.9
2026/04/20 22:41:16.71,IMU,-174.32,-147.95,-1003.42,-0.56,0.45,-0.25,-0.45,3.60,-65.85,31.9
2026/04/20 22:41:16.81,IMU,-161.62,-146.48,-1010.25,0.15,2.52,2.72,-3.00,1.65,-67.20,31.8
2026/04/20 22:41:16.91,IMU,-166.50,-150.39,-1000.98,1.11,1.84,2.21,-1.20,1.95,-65.85,31.8
2026/04/20 22:41:17.01,IMU,-159.67,-153.81,-1007.32,2.06,-1.06,0.07,-4.50,1.95,-67.65,31.9
2026/04/20 22:41:17.11,IMU,-170.90,-148.93,-1009.28,-0.68,-0.08,0.35,-3.45,1.95,-66.90,31.9
2026/04/20 22:41:17.21,IMU,-182.62,-161.13,-1001.46,0.70,-0.16,0.49,-2.55,1.80,-67.35,31.7
2026/04/20 22:41:17.31,IMU,-164.55,-152.83,-999.51,-0.08,-2.02,1.67,-1.80,1.80,-66.75,32.0
2026/04/20 22:41:17.42,IMU,-165.53,-152.83,-1005.86,1.84,0.04,-0.90,-2.25,1.95,-67.95,31.9
2026/04/20 22:41:17.52,IMU,-164.06,-140.63,-1020.51,-0.65,-0.79,-0.84,-3.00,2.70,-67.20,31.9
2026/04/20 22:41:17.62,IMU,-166.02,-142.58,-1009.28,-0.29,-0.47,-1.03,-3.30,3.00,-66.30,31.7
2026/04/20 22:41:17.72,IMU,-176.27,-156.74,-1003.42,-0.92,-1.71,-2.59,-1.80,2.55,-67.05,31.7
2026/04/20 22:41:17.82,IMU,-166.02,-163.09,-1016.11,0.98,-0.49,1.39,-0.60,1.05,-66.75,31.9
2026/04/20 22:41:17.92,IMU,-172.36,-147.46,-1003.91,-0.34,-0.46,0.32,-2.25,1.20,-66.15,31.8
2026/04/20 22:41:18.02,IMU,-170.41,-146.48,-987.79,0.82,0.74,0.88,-4.95,0.45,-64.05,31.9
2026/04/20 22:41:18.12,IMU,-168.95,-150.39,-997.07,0.34,-0.85,0.08,-2.85,2.25,-67.05,31.7
2026/04/20 22:41:18.22,IMU,-156.25,-155.27,-1003.42,-0.17,0.48,-2.88,-2.85,2.25,-66.75,31.9
2026/04/20 22:41:18.32,IMU,-183.59,-150.88,-1006.35,-1.51,3.57,-1.08,-2.25,1.20,-66.15,31.8
2026/04/20 22:41:18.42,IMU,-163.57,-163.09,-1013.67,-1.52,1.44,-2.05,-2.10,1.80,-66.00,31.6
2026/04/20 22:41:18.52,IMU,-163.57,-162.11,-1003.91,-0.62,-1.53,0.91,-3.60,0.75,-67.05,31.9
2026/04/20 22:41:18.62,IMU,-178.71,-161.62,-1001.46,-1.60,-0.35,0.75,-2.55,1.80,-67.80,31.7
2026/04/20 22:41:18.72,IMU,-158.69,-156.74,-1002.93,0.27,0.32,0.26,-3.30,2.25,-66.75,31.9
2026/04/20 22:41:18.82,IMU,-178.71,-144.04,-1003.42,-0.15,1.46,-2.18,-3.00,1.95,-67.95,31.9
2026/04/20 22:41:18.92,IMU,-170.90,-149.41,-989.26,-1.61,-0.21,-3.49,-2.70,1.20,-66.90,31.9
2026/04/20 22:41:19.02,IMU,-178.71,-147.95,-1002.44,-0.31,0.98,2.27,-1.35,3.00,-67.35,31.7
2026/04/20 22:41:19.12,IMU,-163.57,-159.67,-1008.79,-0.21,-1.22,-0.22,-3.75,0.45,-64.05,31.8
2026/04/20 22:41:19.23,IMU,-166.99,-161.62,-1008.30,-0.91,0.11,0.26,-2.10,1.50,-66.75,31.7
2026/04/20 22:41:19.33,IMU,-176.27,-151.86,-1004.39,0.13,-1.48,-0.01,-1.65,1.20,-67.95,31.8
2026/04/20 22:41:19.43,IMU,-167.48,-167.97,-1004.88,-1.40,-0.74,0.69,-2.85,2.55,-67.05,31.7
2026/04/20 22:41:19.53,IMU,-163.09,-153.81,-993.16,-1.00,-1.31,-0.65,-2.85,2.55,-66.00,31.7
2026/04/20 22:41:19.63,IMU,-187.50,-143.55,-1004.88,-0.24,-1.66,-2.17,-2.70,0.45,-66.90,31.7
2026/04/20 22:41:19.73,IMU,-181.15,-162.11,-999.02,0.79,-0.12,-0.88,-2.10,1.50,-68.10,31.9
2026/04/20 22:41:19.83,IMU,-160.16,-154.79,-1013.18,0.57,-0.76,-2.37,-2.10,1.50,-66.75,31.7
2026/04/20 22:41:19.93,IMU,-193.36,-136.23,-985.84,0.40,-1.29,2.79,-2.85,2.55,-66.75,31.7
2026/04/20 22:41:20.04,IMU,-154.30,-152.83,-1000.98,-1.15,2.11,0.15,-1.95,1.95,-67.95,31.7
2026/04/20 22:41:20.14,IMU,-171.88,-142.09,-998.54,-0.65,1.60,0.04,-5.10,-0.75,-63.45,31.7
2026/04/20 22:41:20.25,IMU,-174.32,-157.23,-1012.70,-0.66,-1.31,0.97,-2.85,1.50,-66.75,31.7
2026/04/20 22:41:20.35,IMU,-183.59,-132.32,-998.05,0.65,0.14,-1.02,-3.30,3.00,-67.80,31.9
2026/04/20 22:41:20.45,IMU,-171.88,-155.76,-992.68,-2.63,-0.19,0.47,-1.20,1.95,-66.15,31.7
2026/04/20 22:41:20.55,IMU,-173.83,-160.16,-998.05,-0.05,-1.03,-0.26,-2.10,1.80,-67.80,31.6
2026/04/20 22:41:20.65,IMU,-180.66,-156.74,-1009.28,-0.21,-1.89,2.91,-2.85,1.80,-66.75,31.6
2026/04/20 22:41:20.75,IMU,-176.76,-147.95,-1013.18,0.44,-1.25,0.69,-2.25,0.90,-67.20,31.4
2026/04/20 22:41:20.85,IMU,-173.34,-150.88,-1015.63,1.63,-0.61,1.41,-1.20,3.15,-67.95,31.3
2026/04/20 22:41:20.95,IMU,-168.46,-146.00,-1002.93,-1.22,1.82,-1.84,-2.10,1.80,-67.80,31.5
2026/04/20 22:41:21.05,IMU,-170.90,-153.81,-979.98,-0.32,-0.87,-0.07,-3.30,1.80,-68.10,31.4
2026/04/20 22:41:21.16,IMU,-168.95,-139.65,-1024.90,1.62,-1.27,-3.02,-5.40,1.80,-64.20,31.5
2026/04/20 22:41:21.26,IMU,-183.59,-142.58,-1008.30,-0.76,0.11,1.24,-2.85,2.55,-67.80,31.7
2026/04/20 22:41:21.36,IMU,-178.71,-150.39,-1000.49,-0.31,1.11,-1.31,-1.35,2.25,-68.10,31.4
2026/04/20 22:41:21.46,IMU,-166.99,-142.09,-1015.63,-1.85,0.63,-0.96,-1.65,3.60,-66.90,31.5
2026/04/20 22:41:21.56,IMU,-163.09,-152.83,-1020.51,0.20,-2.74,0.95,-2.70,0.90,-67.65,31.5
2026/04/20 22:41:21.66,IMU,-182.62,-146.48,-1032.71,-1.76,-0.19,-0.45,-1.80,1.80,-66.00,31.2
2026/04/20 22:41:21.76,IMU,-161.13,-146.97,-1006.35,-0.67,-1.40,-2.02,-2.70,2.40,-66.45,31.3
2026/04/20 22:41:21.86,IMU,-163.57,-149.41,-1021.00,1.19,-0.37,-1.56,-1.95,2.40,-66.90,31.5
2026/04/20 22:41:21.96,IMU,-176.76,-151.37,-995.61,-2.39,0.39,1.56,-2.85,1.50,-65.55,31.0
2026/04/20 22:41:22.06,IMU,-181.64,-140.14,-998.54,2.53,-3.98,2.99,-3.00,0.45,-67.65,31.2
2026/04/20 22:41:22.16,IMU,-151.37,-129.88,-1032.71,1.05,-1.67,2.09,-2.25,0.45,-67.65,31.3
2026/04/20 22:41:22.26,IMU,-161.62,-145.02,-1002.93,0.54,-0.04,0.15,-2.85,2.25,-66.00,31.3
2026/04/20 22:41:22.36,IMU,-148.93,-136.72,-1022.46,0.84,1.14,-2.24,-4.20,1.20,-66.90,31.2
2026/04/20 22:41:22.46,IMU,-156.74,-145.51,-1027.34,-0.98,0.49,-0.67,-2.70,1.65,-68.70,31.0
2026/04/20 22:41:22.57,IMU,-167.97,-166.50,-1008.30,-2.21,2.29,0.52,-2.70,1.65,-66.45,31.0
2026/04/20 22:41:22.67,IMU,-138.67,-85.94,-1013.18,-1.89,1.29,-0.60,-1.80,4.05,-68.10,31.0
2026/04/20 22:41:22.77,IMU,-180.18,-136.23,-1015.14,0.95,4.90,-0.81,-1.65,2.40,-66.45,31.1
2026/04/20 22:41:22.87,IMU,-190.43,-146.00,-975.59,0.46,-3.09,-0.31,-1.35,2.55,-66.75,31.1
2026/04/20 22:41:22.97,IMU,-186.52,-150.88,-1012.70,-1.73,-0.32,-3.67,-2.25,1.95,-66.90,31.1
2026/04/20 22:41:23.07,IMU,-197.27,-146.97,-1014.16,2.55,-0.08,0.87,-1.80,2.55,-66.30,31.0
2026/04/20 22:41:23.17,IMU,-178.71,-130.86,-992.19,-0.48,-0.67,-0.70,-2.70,3.15,-68.70,30.7
2026/04/20 22:41:23.27,IMU,-197.27,-140.63,-1006.84,0.44,-1.57,1.67,-4.50,1.65,-67.65,30.7
2026/04/20 22:41:23.37,IMU,-164.55,-157.23,-1003.42,1.12,-0.18,1.20,-3.60,2.25,-68.10,30.9
2026/04/20 22:41:23.47,IMU,-175.78,-146.00,-1028.32,1.17,-2.93,2.96,-2.70,1.20,-66.90,30.9
2026/04/20 22:41:23.57,IMU,-159.67,-135.25,-993.65,-0.59,-1.45,0.59,-1.65,1.20,-67.65,30.9
2026/04/20 22:41:23.67,IMU,-172.85,-157.71,-1008.79,-0.21,1.11,0.81,-1.35,1.50,-67.35,31.1
2026/04/20 22:41:23.77,IMU,-188.96,-138.67,-1000.49,-1.63,0.89,1.02,-1.95,3.15,-67.65,31.2
2026/04/20 22:41:23.87,IMU,-164.55,-161.62,-1020.51,-0.92,-1.16,-0.51,-1.65,2.40,-66.90,31.0
2026/04/20 22:41:23.97,IMU,-171.39,-148.44,-987.30,0.52,1.31,2.81,-2.55,1.50,-68.85,31.0
2026/04/20 22:41:24.07,IMU,-177.25,-157.23,-1002.44,-0.95,3.32,1.13,-2.55,2.55,-67.05,31.1
2026/04/20 22:41:24.17,IMU,-162.11,-149.41,-995.61,2.14,0.48,-0.98,-4.20,1.65,-65.85,31.2
2026/04/20 22:41:24.28,IMU,-171.88,-194.34,-1009.28,1.17,1.61,-2.31,-1.65,1.95,-66.90,31.0
2026/04/20 22:41:24.38,IMU,-142.58,-132.32,-1017.58,-1.51,0.08,-0.34,-2.25,1.95,-66.15,31.1
2026/04/20 22:41:24.48,IMU,-152.83,-134.77,-1025.88,-1.58,0.42,-1.02,-2.85,1.50,-66.30,31.2
2026/04/20 22:41:24.58,IMU,-177.25,-129.39,-998.54,-1.13,0.34,0.45,-3.90,1.50,-66.30,31.2
2026/04/20 22:41:24.68,IMU,-169.43,-140.63,-987.79,-1.55,0.44,0.46,-3.60,1.80,-67.05,31.1
2026/04/20 22:41:24.78,IMU,-187.50,-175.78,-990.72,-0.08,0.32,2.49,-2.10,2.25,-67.80,31.0
2026/04/20 22:41:24.88,IMU,-157.71,-140.14,-1013.67,0.45,-2.16,-1.85,-3.00,1.65,-67.20,31.0
2026/04/20 22:41:24.98,IMU,-156.25,-145.02,-1000.49,-0.73,1.88,1.05,-1.80,2.55,-68.85,31.2
2026/04/20 22:41:25.08,IMU,-163.57,-140.63,-1003.91,-1.05,0.02,-0.44,-3.75,2.40,-67.65,31.2
2026/04/20 22:41:25.18,IMU,-157.23,-145.51,-1002.44,-0.28,1.91,-0.47,-2.85,2.25,-69.30,31.4
2026/04/20 22:41:25.28,IMU,-162.60,-143.07,-1006.84,-0.13,1.70,0.72,-3.00,1.65,-67.20,31.2
2026/04/20 22:41:25.38,IMU,-160.64,-150.39,-989.26,-0.84,1.61,-1.41,-3.45,0.90,-67.20,31.3
2026/04/20 22:41:25.48,IMU,-177.25,-158.20,-992.68,0.03,0.38,1.36,-1.80,1.50,-65.55,31.2
2026/04/20 22:41:25.58,IMU,-176.27,-155.76,-1000.98,0.84,-0.92,-1.63,-3.60,2.55,-67.35,31.2
2026/04/20 22:41:25.68,IMU,-181.15,-145.51,-995.61,1.37,-1.00,-0.86,-3.00,1.95,-66.45,31.4
2026/04/20 22:41:25.78,IMU,-184.08,-151.86,-996.09,0.34,1.63,-0.20,-1.80,3.00,-67.05,31.2
2026/04/20 22:41:25.88,IMU,-172.85,-157.71,-992.68,0.62,0.61,1.65,-2.85,2.25,-65.55,31.1
2026/04/20 22:41:25.98,IMU,-173.34,-135.74,-987.79,-0.48,1.13,-2.63,-3.00,2.70,-67.95,31.4
2026/04/20 22:41:26.08,IMU,-174.80,-134.77,-1007.81,0.79,1.03,-0.28,-3.60,1.05,-65.55,31.4
2026/04/20 22:41:26.19,IMU,-183.59,-155.76,-1001.46,1.05,-1.45,0.41,-1.95,1.65,-66.45,31.2
2026/04/20 22:41:26.29,IMU,-171.88,-149.90,-1000.00,-1.49,0.66,-1.29,-6.00,0.15,-64.65,31.6
2026/04/20 22:41:26.39,IMU,-168.95,-156.25,-1009.28,-1.79,-1.45,2.62,-2.55,1.80,-66.75,31.3
2026/04/20 22:41:26.49,IMU,-167.97,-154.79,-994.14,2.22,-1.04,-1.81,-3.45,2.40,-67.65,31.0
2026/04/20 22:41:26.59,IMU,-167.48,-159.18,-998.54,-0.01,-0.44,0.35,-3.60,2.55,-67.35,31.5
2026/04/20 22:41:26.69,IMU,-173.34,-150.88,-999.02,0.32,-1.03,2.40,-1.95,3.60,-67.65,31.2
2026/04/20 22:41:26.79,IMU,-166.02,-162.11,-1000.98,1.07,0.51,2.43,-2.85,1.50,-67.80,31.2
2026/04/20 22:41:26.89,IMU,-173.34,-152.83,-1001.46,2.36,-2.50,0.18,-2.70,2.40,-68.70,31.4
2026/04/20 22:41:26.99,IMU,-171.39,-139.16,-988.28,0.54,-0.02,2.13,-2.85,2.25,-66.00,31.4
2026/04/20 22:41:27.09,IMU,-171.39,-142.58,-1003.91,-0.14,0.86,2.21,-2.55,1.50,-67.80,31.4
2026/04/20 22:41:27.19,IMU,-176.76,-149.90,-1005.86,-0.17,-1.24,0.18,-2.85,1.80,-67.35,31.6
2026/04/20 22:41:27.30,IMU,-177.25,-152.34,-1012.21,-1.41,1.20,-0.63,-4.35,-0.30,-62.40,31.2
2026/04/20 22:41:27.40,IMU,-159.18,-155.27,-1012.70,-1.65,0.82,0.37,-2.10,1.80,-67.05,31.4
2026/04/20 22:41:27.50,IMU,-165.53,-143.07,-1000.00,-0.79,0.43,-1.22,-1.65,1.95,-67.95,31.6
2026/04/20 22:41:27.60,IMU,-178.22,-133.30,-1011.23,-0.08,0.82,0.71,-2.85,1.50,-67.80,31.4
2026/04/20 22:41:27.70,IMU,-183.59,-161.62,-1008.30,-0.43,1.51,-0.18,-2.70,2.40,-66.90,31.4
2026/04/20 22:41:27.80,IMU,-165.53,-142.09,-1000.00,0.20,0.24,-1.82,-3.45,1.20,-67.65,31.0
2026/04/20 22:41:27.90,IMU,-172.85,-161.13,-1009.28,-0.37,1.78,-0.15,-2.10,1.80,-66.30,31.2
2026/04/20 22:41:28.00,IMU,-167.97,-152.34,-997.56,-1.44,-1.30,3.47,-1.35,1.05,-64.95,31.0
2026/04/20 22:41:28.10,IMU,-164.55,-146.97,-1010.74,3.37,-1.61,-0.35,-2.85,1.50,-66.75,31.1
2026/04/20 22:41:28.20,IMU,-167.97,-143.07,-994.63,-0.05,-0.52,-0.46,-2.55,2.25,-67.35,31.2
2026/04/20 22:41:28.31,IMU,-171.39,-149.90,-1002.93,-1.63,0.89,0.74,-2.85,1.05,-68.10,31.4
2026/04/20 22:41:28.41,IMU,-174.80,-162.11,-1003.91,0.42,1.86,1.37,-1.35,2.25,-67.05,31.1
2026/04/20 22:41:28.51,IMU,-169.92,-159.18,-1019.53,-0.55,0.75,1.95,-3.60,3.00,-66.30,31.0
2026/04/20 22:41:28.61,IMU,-161.62,-161.13,-1000.00,0.26,0.92,1.40,-3.75,3.15,-67.95,31.2
2026/04/20 22:41:28.71,IMU,-158.20,-157.71,-1006.84,1.48,0.28,-0.66,-1.35,2.25,-68.55,31.3
2026/04/20 22:41:28.81,IMU,-164.06,-146.97,-1004.88,-0.59,-3.72,0.51,-1.95,1.20,-67.65,31.1
2026/04/20 22:41:28.91,IMU,-164.55,-144.53,-1011.72,-1.32,0.43,-3.73,-1.80,3.00,-66.75,30.9
2026/04/20 22:41:29.01,IMU,-164.06,-154.30,-1002.93,-0.20,0.66,1.05,-3.00,2.40,-67.95,31.0
2026/04/20 22:41:29.11,IMU,-164.06,-154.79,-1019.53,2.39,1.13,1.44,-3.00,1.20,-68.70,31.2
2026/04/20 22:41:29.21,IMU,-174.80,-150.88,-1010.25,-1.24,-0.42,3.69,-2.55,2.25,-68.55,31.1
2026/04/20 22:41:29.31,IMU,-174.32,-157.23,-1008.79,-1.31,-1.00,-0.41,-3.45,1.95,-67.65,31.0
2026/04/20 22:41:29.41,IMU,-163.57,-154.30,-1002.93,-0.21,2.69,-1.03,-3.30,1.80,-66.00,31.0
2026/04/20 22:41:29.51,IMU,-175.29,-157.71,-1012.70,1.72,-1.17,3.33,-1.65,2.40,-66.90,31.2
2026/04/20 22:41:29.62,IMU,-160.16,-149.41,-996.58,0.60,0.31,0.82,-1.20,2.40,-66.45,31.2
2026/04/20 22:41:29.72,IMU,-165.04,-164.55,-1002.93,-1.24,1.09,-0.50,-3.00,1.20,-67.20,31.0
2026/04/20 22:41:29.82,IMU,-157.23,-154.79,-1025.88,1.27,-1.74,-1.51,-1.80,1.80,-66.00,31.1
2026/04/20 22:41:29.92,IMU,-162.60,-171.39,-991.70,0.38,-1.60,-0.72,-3.30,2.25,-65.55,31.1
2026/04/20 22:41:30.02,IMU,-157.71,-144.53,-997.07,0.08,-1.44,2.09,-3.30,3.00,-67.35,31.0
2026/04/20 22:41:30.12,IMU,-176.76,-153.81,-1003.42,-2.04,0.96,0.73,-1.20,1.65,-68.25,31.0
2026/04/20 22:41:30.22,IMU,-177.73,-151.86,-1012.21,0.44,-0.19,0.29,-3.45,1.95,-67.20,31.0
2026/04/20 22:41:30.32,IMU,-164.55,-160.16,-1000.00,0.50,-0.05,-0.40,-2.25,1.65,-66.90,31.0
2026/04/20 22:41:30.42,IMU,-175.78,-157.71,-1028.81,0.47,0.47,1.08,-1.20,1.95,-67.20,31.1
2026/04/20 22:41:30.52,IMU,-162.11,-149.41,-1009.28,-0.82,1.69,-1.09,-3.00,3.60,-67.95,31.0
2026/04/20 22:41:30.62,IMU,-169.43,-147.46,-992.68,-0.34,1.38,0.66,-0.90,2.40,-67.20,31.2
2026/04/20 22:41:30.72,IMU,-180.18,-149.90,-1000.98,-1.96,0.30,2.95,-2.70,1.65,-67.20,30.9
2026/04/20 22:41:30.82,IMU,-171.88,-142.09,-986.33,1.37,-2.66,3.55,-1.65,1.65,-66.90,31.0
2026/04/20 22:41:30.92,IMU,-194.34,-155.76,-1009.77,-1.13,-0.03,0.49,-2.70,2.70,-67.95,31.0
2026/04/20 22:41:31.02,IMU,-156.74,-156.74,-988.28,-0.40,0.51,0.82,-2.55,1.80,-68.55,31.0
2026/04/20 22:41:31.12,IMU,-175.29,-154.30,-991.70,0.13,2.44,-2.12,-2.70,1.95,-67.95,31.1
2026/04/20 22:41:31.22,IMU,-174.32,-168.95,-1003.42,-1.05,1.76,0.31,-3.30,3.75,-67.35,31.1
2026/04/20 22:41:31.32,IMU,-162.11,-161.13,-979.98,-0.26,-0.27,-0.98,-1.35,1.80,-68.55,31.1
2026/04/20 22:41:31.42,IMU,-176.76,-171.39,-1000.00,-0.91,2.40,-0.05,-6.00,0.15,-62.85,30.8
2026/04/20 22:41:31.53,IMU,-176.27,-140.14,-1013.67,1.09,1.38,-1.70,-2.25,2.40,-66.90,31.0
2026/04/20 22:41:31.63,IMU,-177.73,-149.90,-1004.39,1.20,-0.14,-1.14,-1.95,1.65,-67.20,30.9
2026/04/20 22:41:31.73,IMU,-172.36,-146.00,-1000.98,0.31,2.28,-0.22,-2.10,2.25,-66.30,30.6
2026/04/20 22:41:31.83,IMU,-149.90,-153.81,-1009.28,1.59,-0.42,-1.74,-3.30,3.00,-67.35,31.1
2026/04/20 22:41:31.93,IMU,-164.06,-140.63,-1012.21,-1.34,-0.25,-1.21,-2.55,2.25,-68.55,30.9
2026/04/20 22:41:32.03,IMU,-164.06,-158.20,-1027.83,0.12,1.16,-1.88,-3.60,1.80,-67.35,31.0
2026/04/20 22:41:32.13,IMU,-173.34,-151.86,-1010.74,-0.18,1.86,-0.69,-2.10,2.25,-66.00,31.0
2026/04/20 22:41:32.23,IMU,-174.32,-150.39,-1002.44,1.21,2.21,1.42,-3.45,1.65,-67.20,30.7
2026/04/20 22:41:32.33,IMU,-161.62,-148.93,-1015.14,0.60,1.56,1.12,-2.55,1.80,-66.75,30.5
2026/04/20 22:41:32.43,IMU,-167.48,-160.64,-1006.84,0.99,2.39,2.44,-5.70,-0.15,-63.30,30.5
2026/04/20 22:41:32.53,IMU,-162.11,-152.83,-1017.58,1.57,0.74,-0.79,-3.75,3.15,-67.65,30.8
2026/04/20 22:41:32.63,IMU,-168.95,-142.58,-1014.65,-0.05,-0.18,0.16,-3.00,3.15,-67.65,30.7
2026/04/20 22:41:32.73,IMU,-168.95,-151.86,-1006.84,-0.79,-0.89,0.59,-2.55,1.50,-65.25,30.7
2026/04/20 22:41:32.83,IMU,-160.16,-153.81,-997.07,0.69,0.05,1.43,-2.70,1.65,-67.95,30.6
2026/04/20 22:41:32.93,IMU,-179.20,-159.67,-1007.32,-1.85,3.23,-1.57,-2.10,1.80,-67.05,31.0
2026/04/20 22:41:33.03,IMU,-164.55,-152.83,-1000.49,-0.71,0.38,-0.56,-1.20,2.70,-68.25,30.9
2026/04/20 22:41:33.13,IMU,-178.71,-153.81,-998.54,-0.81,-1.12,0.65,-2.70,0.90,-67.95,30.8
2026/04/20 22:41:33.23,IMU,-167.48,-140.14,-988.77,-0.58,2.40,0.60,-2.85,3.30,-67.35,30.7
2026/04/20 22:41:33.33,IMU,-178.71,-149.41,-1001.46,-0.84,-0.32,-3.53,-3.60,2.25,-67.05,30.9
2026/04/20 22:41:33.45,IMU,-180.66,-154.79,-1018.07,-1.91,-0.49,0.47,-4.20,0.15,-62.55,30.7
2026/04/20 22:41:33.55,IMU,-193.85,-153.32,-1012.21,-0.24,1.14,0.73,-2.70,1.95,-66.15,30.5
2026/04/20 22:41:33.65,IMU,-173.34,-148.93,-1013.18,0.08,-1.12,0.65,-2.10,1.80,-67.05,30.5
2026/04/20 22:41:33.75,IMU,-159.18,-150.88,-1011.72,0.27,-1.55,3.17,-2.85,1.80,-67.95,30.7
2026/04/20 22:41:33.85,IMU,-181.64,-150.39,-1002.44,-0.38,-0.65,-1.90,-2.70,0.90,-66.90,30.5
2026/04/20 22:41:33.95,IMU,-171.39,-163.57,-1001.95,0.63,-0.79,0.32,-1.65,2.70,-67.65,30.8
2026/04/20 22:41:34.05,IMU,-149.41,-148.93,-1007.32,2.04,0.23,0.58,-2.70,1.95,-67.20,30.7
2026/04/20 22:41:34.15,IMU,-170.41,-148.93,-1034.18,1.01,0.48,-0.58,-1.65,2.70,-67.95,30.7
2026/04/20 22:41:34.25,IMU,-157.71,-149.41,-1017.09,-0.55,-1.44,0.85,-2.85,2.55,-67.35,30.5
2026/04/20 22:41:34.35,IMU,-157.23,-145.51,-997.07,-0.13,-0.73,0.32,-2.10,0.75,-68.55,30.7
2026/04/20 22:41:34.47,IMU,-157.71,-160.16,-1035.16,0.66,-2.44,-0.39,-4.95,0.45,-61.80,30.6
2026/04/20 22:41:34.57,IMU,-158.69,-138.18,-1024.90,0.76,2.33,-2.73,-1.95,2.70,-66.90,30.7
2026/04/20 22:41:34.67,IMU,-149.90,-143.07,-1011.72,0.87,-2.01,1.62,-3.45,1.65,-67.65,30.5
2026/04/20 22:41:34.77,IMU,-165.53,-159.18,-1023.93,-0.32,-1.47,2.31,-2.10,1.80,-67.05,30.7
2026/04/20 22:41:34.87,IMU,-164.06,-156.74,-1001.95,1.47,0.24,-1.95,-1.80,2.55,-67.35,30.6
2026/04/20 22:41:34.97,IMU,-176.76,-166.99,-1012.70,-0.75,1.27,-0.92,-2.70,3.15,-66.45,30.7
2026/04/20 22:41:35.07,IMU,-173.83,-147.46,-1011.23,1.84,0.87,1.08,-2.10,1.80,-66.30,30.5
2026/04/20 22:41:35.17,IMU,-168.95,-146.48,-993.65,-1.87,2.04,-1.24,-2.85,2.55,-67.05,30.5
2026/04/20 22:41:35.27,IMU,-156.25,-151.86,-997.07,-0.57,-0.33,1.26,-1.65,3.15,-67.65,30.4
2026/04/20 22:41:35.37,IMU,-171.39,-146.48,-1020.02,1.89,2.20,0.92,-1.65,1.95,-67.95,30.6
2026/04/20 22:41:35.47,IMU,-171.39,-140.14,-1003.42,-0.81,-0.06,0.25,-1.35,2.55,-68.55,30.5
2026/04/20 22:41:35.57,IMU,-165.53,-162.60,-1010.25,-0.82,-0.75,-1.24,-1.95,2.40,-67.65,30.5
2026/04/20 22:41:35.67,IMU,-184.08,-157.23,-995.61,0.25,-3.40,-0.56,-2.55,1.80,-68.85,30.6
2026/04/20 22:41:35.77,IMU,-162.60,-142.09,-1009.77,-1.76,-0.98,0.05,-1.65,1.65,-68.25,30.4
2026/04/20 22:41:35.87,IMU,-181.64,-158.69,-994.63,-0.24,2.66,-1.47,-3.00,1.65,-68.25,30.8
2026/04/20 22:41:35.98,IMU,-160.64,-144.53,-1016.11,-0.95,-0.21,0.31,-3.30,0.75,-68.10,30.7
2026/04/20 22:41:36.08,IMU,-157.23,-155.76,-986.82,-0.25,0.85,-0.65,-3.00,1.95,-67.65,30.6
2026/04/20 22:41:36.18,IMU,-168.95,-148.44,-998.54,-0.12,1.46,1.95,-3.30,1.80,-67.05,30.4
2026/04/20 22:41:36.28,IMU,-154.79,-150.39,-991.70,-1.76,0.85,-0.13,-4.20,1.95,-66.45,30.3
2026/04/20 22:41:36.38,IMU,-176.76,-156.74,-1001.95,-1.35,0.11,-0.86,-3.00,3.60,-67.65,30.7
2026/04/20 22:41:36.48,IMU,-176.76,-160.16,-1003.42,0.21,0.99,-0.55,-1.80,3.00,-67.05,30.6
2026/04/20 22:41:36.58,IMU,-175.78,-148.44,-995.61,-1.07,-0.65,0.43,-3.75,3.15,-67.20,30.6
2026/04/20 22:41:36.68,IMU,-158.69,-144.04,-999.02,0.98,1.69,1.16,-2.85,1.50,-67.05,30.7
2026/04/20 22:41:36.78,IMU,-167.97,-147.95,-1011.23,-1.02,0.79,3.15,-2.10,2.25,-67.05,30.5
2026/04/20 22:41:36.88,IMU,-166.99,-146.00,-1004.88,-0.85,1.95,-3.02,-2.10,1.80,-66.75,30.7
2026/04/20 22:41:36.98,IMU,-163.57,-151.86,-1000.98,-0.62,2.28,0.15,-3.00,1.20,-68.25,30.5
2026/04/20 22:41:37.08,IMU,-175.29,-153.81,-1011.23,2.02,0.36,1.65,-3.45,3.60,-66.45,30.3
2026/04/20 22:41:37.18,IMU,-172.85,-147.95,-999.02,0.92,0.66,-0.65,-3.90,3.30,-67.35,30.6
2026/04/20 22:41:37.28,IMU,-177.25,-153.32,-991.21,1.21,-1.24,1.05,-1.80,1.80,-67.05,30.6
2026/04/20 22:41:37.38,IMU,-165.04,-152.34,-997.56,-0.08,1.54,0.40,-2.10,3.00,-66.75,30.5
2026/04/20 22:41:37.48,IMU,-184.08,-154.79,-991.21,-0.06,-0.02,0.58,-2.85,1.80,-67.35,30.3
2026/04/20 22:41:37.58,IMU,-167.48,-149.90,-1001.95,-0.17,-2.64,0.21,-1.65,1.95,-67.65,30.4
2026/04/20 22:41:37.68,IMU,-182.13,-151.86,-1019.04,0.32,1.50,0.89,-1.20,2.70,-66.90,30.7
2026/04/20 22:41:37.78,IMU,-177.73,-154.79,-999.02,0.16,-1.00,2.69,-3.00,3.15,-67.65,30.5
2026/04/20 22:41:37.88,IMU,-166.50,-146.48,-1001.95,-2.10,-1.14,-3.42,-3.00,1.65,-67.65,30.8
2026/04/20 22:41:37.99,IMU,-161.13,-139.65,-1017.09,1.27,1.50,2.91,-2.10,3.75,-68.10,30.9
2026/04/20 22:41:38.09,IMU,-170.90,-154.30,-1011.23,-1.04,-0.38,-0.92,-3.60,3.00,-67.05,30.8
2026/04/20 22:41:38.19,IMU,-160.16,-145.51,-1014.65,0.77,1.41,0.51,-2.10,2.55,-67.05,30.7
2026/04/20 22:41:38.29,IMU,-147.46,-147.95,-1003.91,0.02,-0.64,-0.21,-4.20,1.65,-67.65,30.7
2026/04/20 22:41:38.39,IMU,-182.13,-156.25,-992.68,-2.24,-0.48,0.35,-1.95,1.20,-67.20,30.7
2026/04/20 22:41:38.49,IMU,-159.18,-137.21,-995.61,1.79,2.44,-2.92,-1.80,2.55,-66.75,30.5
2026/04/20 22:41:38.59,IMU,-163.57,-156.74,-1002.93,1.96,-1.27,0.94,-2.85,1.80,-67.05,30.6
2026/04/20 22:41:38.69,IMU,-165.53,-151.37,-1005.86,1.40,0.90,1.58,-1.20,1.65,-67.95,30.6
2026/04/20 22:41:38.79,IMU,-171.39,-147.46,-997.07,-0.49,1.27,1.84,-2.70,1.65,-66.45,30.5
2026/04/20 22:41:38.89,IMU,-172.36,-162.11,-1010.25,0.52,0.68,-1.40,-3.00,2.70,-67.95,30.7
2026/04/20 22:41:38.99,IMU,-171.39,-143.55,-1010.25,0.53,1.97,1.94,-1.95,2.70,-67.65,30.7
2026/04/20 22:41:39.09,IMU,-152.83,-149.90,-1011.23,-1.56,-1.12,0.66,-2.10,0.30,-66.00,30.8
2026/04/20 22:41:39.19,IMU,-172.36,-153.81,-1000.49,-1.98,2.41,-2.95,-3.75,1.20,-66.45,30.5
2026/04/20 22:41:39.29,IMU,-172.85,-147.46,-1006.84,-1.82,-0.26,0.98,-2.10,1.80,-65.55,30.9
2026/04/20 22:41:39.39,IMU,-170.90,-152.83,-1004.39,-0.89,0.60,0.47,-1.20,0.45,-66.45,30.6
2026/04/20 22:41:39.49,IMU,-171.39,-144.53,-1019.53,1.52,1.36,-1.41,-3.45,2.70,-66.90,30.9
2026/04/20 22:41:39.59,IMU,-198.24,-197.27,-936.52,-3.77,5.36,-4.31,-6.15,-0.30,-63.45,30.9
2026/04/20 22:41:39.70,IMU,-303.71,-244.14,-927.73,-1.78,4.04,-1.16,-3.60,3.00,-67.80,30.8
2026/04/20 22:41:39.80,IMU,81.54,-361.33,-1283.20,-9.78,3.46,-12.11,-5.10,2.55,-67.35,30.6
2026/04/20 22:41:39.90,IMU,-201.66,-39.06,-915.53,-8.18,10.90,-6.82,-1.95,3.60,-66.15,30.7
2026/04/20 22:41:40.00,IMU,-497.07,-59.08,-762.70,-9.09,5.51,-0.68,-1.20,3.90,-67.65,30.7
2026/04/20 22:41:40.10,IMU,-132.81,-145.02,-1058.59,14.66,-6.09,12.88,-2.25,2.70,-67.20,30.5
2026/04/20 22:41:40.20,IMU,-114.26,-144.53,-1058.59,5.02,-6.92,7.11,-2.10,3.30,-67.80,30.7
2026/04/20 22:41:40.30,IMU,-146.48,-267.09,-1026.86,-6.53,7.50,-0.44,-4.20,2.40,-68.25,30.9
2026/04/20 22:41:40.40,IMU,-190.92,-126.46,-1025.88,15.55,-8.98,15.06,-3.30,2.55,-66.30,31.0
2026/04/20 22:41:40.50,IMU,38.09,-128.91,-1099.61,-9.56,4.59,-9.56,-2.25,3.90,-67.95,30.6
2026/04/20 22:41:40.61,IMU,-162.60,-137.21,-988.77,-1.51,5.49,0.26,-7.35,0.30,-62.70,31.0
2026/04/20 22:41:40.71,IMU,-221.68,-166.02,-1061.04,-0.36,-1.47,3.24,-1.80,4.50,-67.35,30.9
2026/04/20 22:41:40.81,IMU,-191.89,-151.86,-978.03,1.59,-4.78,-0.37,-2.55,3.30,-67.35,30.8
2026/04/20 22:41:40.91,IMU,-140.63,-81.05,-1028.81,-0.28,2.08,0.31,-2.70,2.70,-67.95,30.9
2026/04/20 22:41:41.01,IMU,-135.74,-132.81,-989.75,-1.82,6.50,1.69,-3.60,3.75,-68.10,31.0
2026/04/20 22:41:41.11,IMU,-173.83,-172.85,-1034.67,1.61,-1.83,-0.75,-3.45,3.90,-66.90,31.0
2026/04/20 22:41:41.21,IMU,-150.88,-105.47,-990.23,0.92,-2.11,-0.98,-3.30,4.50,-67.80,30.7
2026/04/20 22:41:41.31,IMU,-144.53,-126.95,-1016.60,0.54,0.71,-2.48,-3.45,2.40,-67.20,31.0
2026/04/20 22:41:41.41,IMU,-146.00,-143.07,-979.00,-2.05,1.93,3.51,-3.00,2.70,-67.65,30.7
2026/04/20 22:41:41.51,IMU,-156.25,-141.60,-1001.95,-1.84,4.18,-1.36,-3.75,3.90,-66.90,31.0
2026/04/20 22:41:41.61,IMU,-147.95,-173.34,-964.36,0.30,-0.55,2.29,-2.25,2.70,-67.95,31.0
2026/04/20 22:41:41.71,IMU,-166.99,-141.11,-1004.39,-2.11,1.97,-1.37,-3.75,3.90,-67.95,31.0
2026/04/20 22:41:41.81,IMU,-202.15,-161.13,-1009.77,1.15,1.50,-0.66,-3.00,1.65,-68.70,31.0
2026/04/20 22:41:41.91,IMU,-145.02,-158.69,-984.86,0.99,4.87,-0.66,-3.75,2.40,-67.20,31.1
2026/04/20 22:41:42.01,IMU,-188.48,-158.20,-1044.43,1.79,1.82,4.32,-2.55,3.75,-68.10,31.0
2026/04/20 22:41:42.11,IMU,-106.45,-85.94,-988.77,-1.86,1.73,-2.63,-3.45,1.20,-66.90,31.2
2026/04/20 22:41:42.21,IMU,-150.88,-135.74,-1030.76,3.33,-1.14,3.05,-3.45,2.70,-67.20,30.9
2026/04/20 22:41:42.31,IMU,-187.01,-152.83,-994.63,3.73,2.11,3.85,-2.70,2.70,-69.00,31.0
2026/04/20 22:41:42.42,IMU,-214.84,-317.38,-999.02,5.89,-11.97,3.16,-3.00,1.95,-66.45,31.0
2026/04/20 22:41:42.52,IMU,-203.61,-282.71,-1004.39,-4.26,-1.71,8.94,-3.00,3.15,-68.25,31.0
2026/04/20 22:41:42.62,IMU,-120.61,-125.98,-1107.42,6.63,-12.89,12.05,-3.60,2.55,-67.35,31.2
2026/04/20 22:41:42.72,IMU,-41.99,-123.05,-1074.22,4.87,2.01,9.23,-2.85,2.55,-66.75,31.1
2026/04/20 22:41:42.82,IMU,-110.35,-149.41,-1026.86,-4.01,2.93,-5.85,-3.90,2.55,-67.35,31.0
2026/04/20 22:41:42.92,IMU,-154.30,-140.63,-1021.00,-1.66,4.24,-3.79,-4.20,1.95,-66.90,31.1
2026/04/20 22:41:43.02,IMU,-180.18,-169.43,-1003.42,-1.53,-0.36,-0.22,-3.45,3.90,-67.65,31.3
2026/04/20 22:41:43.12,IMU,-193.85,-160.64,-973.63,-1.49,-0.46,0.45,-3.90,4.50,-69.60,31.0
2026/04/20 22:41:43.22,IMU,-162.60,-137.70,-1000.98,1.08,0.01,-0.40,-1.35,4.05,-67.80,31.0
2026/04/20 22:41:43.32,IMU,-174.80,-122.07,-1023.93,1.05,-0.94,1.05,-2.70,3.15,-68.70,31.1
2026/04/20 22:41:43.42,IMU,-154.79,-141.60,-998.54,2.00,-1.53,2.66,-3.00,3.15,-68.70,31.4
2026/04/20 22:41:43.52,IMU,-160.64,-129.39,-998.05,-1.56,-0.80,-0.76,-2.85,3.00,-67.80,31.2
2026/04/20 22:41:43.62,IMU,-176.76,-141.11,-1018.55,-1.21,-0.76,0.00,-1.35,3.00,-66.75,31.1
2026/04/20 22:41:43.72,IMU,-162.11,-123.05,-1027.34,-1.95,2.15,-0.92,-2.55,3.75,-68.10,31.4
2026/04/20 22:41:43.82,IMU,-151.37,-113.28,-1003.91,0.16,0.00,1.68,-1.05,3.00,-67.35,31.2
2026/04/20 22:41:43.92,IMU,-146.00,-212.40,-1021.97,-1.41,-5.72,-3.93,-3.00,3.15,-67.95,31.2
2026/04/20 22:41:44.02,IMU,-164.06,-116.70,-967.29,-0.77,7.58,3.53,-2.25,1.65,-65.85,31.2
2026/04/20 22:41:44.12,IMU,-145.51,-131.35,-1037.60,1.53,3.45,-1.04,-3.45,1.95,-67.65,31.2
2026/04/20 22:41:44.22,IMU,-204.10,-141.11,-1005.37,-0.15,0.15,0.70,-3.30,3.00,-69.60,31.2
2026/04/20 22:41:44.32,IMU,-157.23,-122.07,-1027.83,1.26,-0.74,0.83,-3.00,3.60,-68.25,31.4
2026/04/20 22:41:44.43,IMU,-194.34,-119.63,-996.58,-1.98,0.49,-1.44,-3.90,2.25,-68.85,31.0
2026/04/20 22:41:44.53,IMU,-165.53,-145.51,-1021.48,-1.27,-1.53,-1.77,-1.80,3.00,-66.30,31.1
2026/04/20 22:41:44.63,IMU,-173.34,-160.16,-1009.77,-0.37,-1.84,-0.23,-3.30,1.50,-67.80,31.1
2026/04/20 22:41:44.73,IMU,-162.60,-137.21,-1014.16,-2.00,0.84,-2.15,-2.85,3.30,-67.80,30.9
2026/04/20 22:41:44.83,IMU,-155.76,-121.58,-1019.04,0.15,-0.37,0.28,-3.30,4.50,-67.80,31.4
2026/04/20 22:41:44.93,IMU,-165.04,-138.67,-1006.84,0.30,-0.40,-1.40,-2.55,3.30,-68.10,31.4
2026/04/20 22:41:45.03,IMU,-149.41,-162.60,-1020.51,-0.58,-2.08,-0.72,-1.20,3.60,-67.20,31.1
2026/04/20 22:41:45.13,IMU,-174.32,-152.83,-1033.20,1.02,-2.11,-0.98,-4.50,3.60,-69.00,31.1
2026/04/20 22:41:45.23,IMU,-148.44,-157.23,-1001.95,-0.44,-5.86,-1.24,-3.45,2.40,-67.20,31.4
2026/04/20 22:41:45.33,IMU,-179.20,-152.83,-998.54,-0.68,1.01,0.10,-2.70,3.90,-67.20,31.3
2026/04/20 22:41:45.43,IMU,-150.88,-152.34,-1003.42,-0.58,-0.32,-0.36,-3.90,1.80,-67.35,31.4
2026/04/20 22:41:45.53,IMU,-205.57,-144.04,-1063.48,2.31,-11.89,1.69,-3.45,3.15,-65.40,31.0
2026/04/20 22:41:45.63,IMU,-135.74,-157.23,-947.75,-1.81,-7.53,-1.94,-2.85,4.05,-69.60,31.3
2026/04/20 22:41:45.73,IMU,-151.37,-134.28,-959.96,-3.23,9.35,-4.34,-4.20,1.20,-64.35,31.0
2026/04/20 22:41:45.83,IMU,-201.17,-150.39,-1011.23,2.26,-1.46,0.62,-3.00,3.60,-68.25,31.3
2026/04/20 22:41:45.93,IMU,-166.50,-146.48,-1031.74,-0.73,-1.06,-1.00,-2.70,1.65,-67.65,31.3
2026/04/20 22:41:46.03,IMU,-175.78,-142.58,-991.21,0.39,-2.05,0.12,-2.70,3.60,-68.25,31.0
2026/04/20 22:41:46.13,IMU,-162.11,-143.55,-995.12,2.77,0.52,1.46,-3.30,3.00,-67.80,31.3
2026/04/20 22:41:46.23,IMU,-166.99,-143.55,-1006.84,0.06,-0.18,1.66,-3.60,3.00,-67.80,31.1
2026/04/20 22:41:46.34,IMU,-168.46,-144.53,-1000.49,-0.59,1.81,-2.20,-4.20,2.40,-68.25,31.4
2026/04/20 22:41:46.44,IMU,-152.83,-137.21,-989.75,0.51,-1.47,-1.60,-1.80,3.30,-68.10,31.0
2026/04/20 22:41:46.54,IMU,-167.97,-144.53,-1010.74,-0.54,-1.59,-0.39,-1.80,3.75,-68.55,31.1
2026/04/20 22:41:46.64,IMU,-170.41,-137.70,-1003.42,-0.96,1.37,-0.03,-2.70,3.90,-67.20,31.1
2026/04/20 22:41:46.74,IMU,-166.99,-134.77,-1018.07,-2.31,-0.01,1.71,-6.75,0.90,-63.30,31.2
2026/04/20 22:41:46.85,IMU,-162.60,-134.77,-994.63,0.18,1.93,1.33,-2.85,2.55,-66.00,31.3
2026/04/20 22:41:46.95,IMU,-158.20,-145.02,-1014.65,0.46,-0.53,1.03,-1.65,3.15,-67.65,31.1
2026/04/20 22:41:47.05,IMU,-170.90,-150.88,-1022.46,1.40,-0.46,1.60,-2.10,3.30,-68.55,31.1
2026/04/20 22:41:47.15,IMU,-178.22,-146.00,-994.14,-0.38,-1.95,-1.73,-3.00,1.95,-67.95,31.0
2026/04/20 22:41:47.25,IMU,-157.71,-152.34,-1007.32,0.43,2.05,-0.95,-3.00,3.60,-67.65,31.4
2026/04/20 22:41:47.35,IMU,-162.60,-139.65,-1010.74,0.04,-0.44,-1.11,-3.45,3.15,-66.15,31.2
2026/04/20 22:41:47.45,IMU,-168.46,-137.70,-997.07,0.49,1.79,1.51,-2.10,3.00,-68.55,31.2
2026/04/20 22:41:47.55,IMU,-161.13,-142.58,-1025.88,-0.44,-0.37,2.24,-1.65,2.40,-67.20,31.2
2026/04/20 22:41:47.65,IMU,-142.09,-145.51,-1019.04,2.27,2.08,1.19,-3.30,3.30,-67.05,31.2
2026/04/20 22:41:47.77,IMU,-150.39,-141.60,-1013.67,-0.17,-0.84,-3.02,-6.60,0.30,-63.45,31.4
2026/04/20 22:41:47.87,IMU,-160.64,-138.18,-1007.81,0.61,-1.37,0.15,-3.75,3.90,-67.65,31.1
2026/04/20 22:41:47.98,IMU,-161.13,-148.93,-1011.72,0.49,-0.08,2.49,-3.00,3.90,-69.00,31.0
2026/04/20 22:41:48.08,IMU,-157.71,-135.74,-1008.79,1.75,-2.61,1.41,-3.60,1.80,-68.55,31.1
2026/04/20 22:41:48.18,IMU,-168.95,-148.93,-1019.04,0.44,0.55,0.83,-2.25,2.40,-67.95,31.4
2026/04/20 22:41:48.28,IMU,-152.83,-140.14,-1018.55,0.56,0.79,-0.01,-3.75,2.70,-66.15,31.2
2026/04/20 22:41:48.38,IMU,-178.22,-152.34,-1010.74,0.33,0.20,1.27,-2.55,3.00,-68.10,31.0
2026/04/20 22:41:48.48,IMU,-157.23,-138.67,-1011.23,1.38,-2.75,1.41,-2.10,4.05,-66.75,31.1
2026/04/20 22:41:48.58,IMU,-155.76,-132.81,-1019.53,0.75,1.85,1.14,-2.85,3.00,-67.35,30.9
2026/04/20 22:41:48.68,IMU,-165.53,-120.61,-1020.51,-0.01,-2.69,-3.12,-3.60,3.30,-68.10,31.1
2026/04/20 22:41:48.79,IMU,-157.71,-146.48,-998.05,-1.37,-2.31,-1.15,-4.50,-1.65,-64.35,31.1
2026/04/20 22:41:48.89,IMU,-163.57,-140.14,-1002.93,0.57,1.25,1.06,-3.45,3.90,-67.95,31.1
2026/04/20 22:41:48.99,IMU,-160.16,-142.09,-991.21,1.26,1.79,-0.60,-1.80,1.80,-67.80,31.0
2026/04/20 22:41:49.09,IMU,-169.43,-150.39,-994.63,-0.01,1.40,0.24,-1.95,2.40,-67.65,31.3
2026/04/20 22:41:49.19,IMU,-183.59,-149.90,-1016.60,0.02,0.93,1.60,-2.55,2.25,-67.05,31.2
2026/04/20 22:41:49.29,IMU,-168.95,-141.60,-1031.74,-2.02,-0.53,-0.94,-2.25,2.40,-68.70,31.0
2026/04/20 22:41:49.39,IMU,-164.55,-127.44,-994.63,-0.07,1.13,2.24,-3.00,3.15,-67.95,31.2
2026/04/20 22:41:49.49,IMU,-161.62,-162.60,-1012.70,1.57,0.77,0.61,-2.25,1.65,-67.20,31.2
2026/04/20 22:41:49.59,IMU,-156.74,-127.44,-999.02,-1.82,0.77,1.07,-3.30,1.80,-68.10,31.1
2026/04/20 22:41:49.69,IMU,-167.48,-139.65,-1001.95,1.22,-0.87,-0.37,-2.55,3.75,-66.75,31.0
2026/04/20 22:41:49.79,IMU,-148.93,-133.30,-998.05,-0.79,0.58,-2.18,-2.70,2.70,-68.25,31.2
2026/04/20 22:41:49.89,IMU,-165.53,-137.21,-998.54,1.14,-1.57,1.53,-2.85,2.25,-68.10,31.2
2026/04/20 22:41:49.99,IMU,-172.85,-151.86,-1006.35,0.02,2.01,-0.65,-3.00,2.40,-67.20,31.2
2026/04/20 22:41:50.09,IMU,-182.62,-130.86,-1001.46,-0.72,-3.10,0.19,-2.70,2.40,-67.95,31.2
2026/04/20 22:41:50.19,IMU,-179.69,-142.09,-1001.46,0.94,2.72,0.62,-2.25,1.95,-67.65,30.8
2026/04/20 22:41:50.30,IMU,-172.36,-139.65,-1009.28,1.11,-1.54,0.07,-1.65,0.90,-66.90,30.9
2026/04/20 22:41:50.40,IMU,-169.92,-147.95,-1015.63,0.18,0.40,-0.95,-3.00,3.15,-68.25,31.0
2026/04/20 22:41:50.50,IMU,-168.46,-146.00,-1007.81,1.52,1.40,-1.12,-2.70,3.60,-69.45,31.2
2026/04/20 22:41:50.60,IMU,-162.11,-137.70,-993.65,-0.21,-0.31,-0.99,-3.30,3.00,-67.80,31.1
2026/04/20 22:41:50.70,IMU,-165.53,-141.11,-994.14,2.82,0.57,1.66,-1.95,1.65,-68.25,31.1
2026/04/20 22:41:50.80,IMU,-181.64,-160.16,-1005.37,-0.27,0.34,-1.34,-3.60,4.80,-66.75,31.2
2026/04/20 22:41:50.90,IMU,-165.04,-134.28,-1017.09,1.40,-1.95,0.20,-2.70,1.95,-68.70,30.8
2026/04/20 22:41:51.00,IMU,-171.39,-149.41,-1013.67,-0.79,-0.28,1.15,-2.70,3.15,-67.95,31.1
2026/04/20 22:41:51.10,IMU,-176.76,-136.23,-1007.81,-0.23,1.56,-1.40,-2.55,3.00,-67.80,31.1
2026/04/20 22:41:51.20,IMU,-180.66,-130.86,-1006.84,1.48,3.10,0.08,-2.85,4.05,-68.10,31.2
2026/04/20 22:41:51.30,IMU,-148.44,-140.14,-1020.02,1.61,0.84,2.31,-2.55,2.25,-67.05,31.1
2026/04/20 22:41:51.40,IMU,-164.06,-136.23,-1021.00,-1.04,-1.89,2.93,-3.90,3.30,-67.35,31.1
2026/04/20 22:41:51.50,IMU,-157.71,-155.76,-1016.60,-0.50,-0.63,-0.95,-1.35,2.55,-68.10,31.1
2026/04/20 22:41:51.60,IMU,-180.18,-148.93,-1009.28,-0.34,3.34,0.54,-2.25,4.35,-69.00,30.9
2026/04/20 22:41:51.70,IMU,-174.80,-133.79,-999.02,1.40,1.56,1.21,-4.20,3.15,-68.25,31.2
2026/04/20 22:41:51.80,IMU,-140.14,-135.25,-992.19,0.03,-1.38,-1.82,-3.60,3.00,-67.35,31.1
2026/04/20 22:41:51.90,IMU,-183.11,-146.48,-996.58,0.02,0.53,-1.94,-3.30,3.00,-67.35,31.0
2026/04/20 22:41:52.00,IMU,-171.39,-149.41,-994.14,0.31,1.44,-1.23,-1.95,3.15,-66.45,31.2
2026/04/20 22:41:52.10,IMU,-160.16,-142.09,-1005.37,0.79,2.25,0.87,-1.80,1.05,-67.80,31.1
2026/04/20 22:41:52.21,IMU,-172.85,-141.60,-1025.88,0.63,-2.28,-0.27,-1.80,3.30,-68.10,31.4
2026/04/20 22:41:52.31,IMU,-166.02,-133.79,-1025.39,-0.56,2.36,5.40,-2.85,2.25,-66.30,31.0
2026/04/20 22:41:52.41,IMU,-181.64,-156.74,-1002.44,0.86,-0.08,1.92,-2.25,3.90,-67.65,31.1
2026/04/20 22:41:52.51,IMU,-161.62,-137.70,-1023.44,0.89,2.07,0.00,-2.25,2.40,-69.00,31.2
2026/04/20 22:41:52.61,IMU,-155.76,-141.60,-1013.18,-1.87,-0.09,1.02,-2.55,3.00,-68.85,31.1
2026/04/20 22:41:52.71,IMU,-154.79,-141.11,-1004.39,-0.93,1.42,-1.40,-3.00,3.60,-67.65,31.1
2026/04/20 22:41:52.81,IMU,-154.30,-140.14,-1012.70,1.98,-0.24,0.21,-2.10,4.05,-68.85,30.8
2026/04/20 22:41:52.91,IMU,-154.79,-154.79,-1010.25,-1.19,-1.98,-0.18,-5.25,2.70,-65.10,31.0
2026/04/20 22:41:53.01,IMU,-172.36,-132.81,-1015.14,-1.86,0.42,-1.90,-2.55,2.25,-68.55,31.0
2026/04/20 22:41:53.11,IMU,-177.73,-133.79,-1000.00,-0.66,1.20,-3.21,-0.30,3.00,-67.35,31.1
2026/04/20 22:41:53.21,IMU,-163.57,-106.45,-1013.18,0.69,0.13,-2.66,-1.35,2.55,-67.80,31.0
2026/04/20 22:41:53.31,IMU,-201.17,-109.86,-1017.58,-2.05,-2.98,2.06,-1.05,2.55,-68.55,31.0
2026/04/20 22:41:53.41,IMU,-114.75,-146.97,-1002.93,-0.13,3.50,0.75,-2.25,3.15,-67.65,31.0
2026/04/20 22:41:53.51,IMU,-127.44,-122.56,-1000.49,-0.21,-1.47,-0.93,-3.30,2.55,-67.80,31.2
2026/04/20 22:41:53.61,IMU,-173.83,-91.80,-1003.91,2.96,0.50,0.78,-2.85,3.00,-68.10,31.0
2026/04/20 22:41:53.71,IMU,-168.95,-109.86,-960.94,7.47,5.95,0.39,-2.55,3.00,-67.05,31.2
2026/04/20 22:41:53.81,IMU,-211.43,-113.28,-1040.04,2.23,-7.10,1.28,-3.30,3.00,-69.30,31.1
2026/04/20 22:41:53.91,IMU,-131.84,-145.02,-1026.37,1.53,1.24,4.18,-5.10,0.75,-62.70,31.0
2026/04/20 22:41:54.01,IMU,-156.74,-134.28,-1004.88,0.18,0.00,-2.60,-2.25,3.90,-68.25,31.1
2026/04/20 22:41:54.13,IMU,-153.32,-142.58,-1025.88,1.12,-1.88,0.42,-2.55,2.55,-67.35,31.1
2026/04/20 22:41:54.23,IMU,-149.90,-138.18,-1006.84,0.08,-0.64,-0.48,-2.25,3.15,-69.00,31.2
2026/04/20 22:41:54.33,IMU,-158.20,-143.07,-1021.48,-0.07,-1.15,-0.07,-3.60,2.25,-68.55,30.9
2026/04/20 22:41:54.43,IMU,-154.30,-145.02,-1016.60,-1.60,-2.48,1.92,-4.20,4.35,-66.90,31.1
2026/04/20 22:41:54.53,IMU,-154.30,-126.46,-1012.21,-0.64,2.07,-1.11,-2.70,2.70,-69.00,31.0
2026/04/20 22:41:54.63,IMU,-158.69,-134.77,-1012.21,-0.50,-0.68,0.79,-2.85,3.75,-68.85,31.1
2026/04/20 22:41:54.73,IMU,-153.81,-137.21,-1011.72,-0.11,-2.63,0.18,-1.35,2.55,-68.10,31.0
2026/04/20 22:41:54.83,IMU,-162.60,-132.32,-998.54,-1.31,0.65,-0.64,-2.55,3.75,-68.55,31.1
2026/04/20 22:41:54.93,IMU,-183.59,-129.39,-1014.65,-0.88,1.77,0.68,-6.30,0.90,-63.60,31.1
2026/04/20 22:41:55.04,IMU,-165.04,-141.11,-989.26,-1.25,-1.31,-0.31,-1.95,3.60,-69.00,31.2
2026/04/20 22:41:55.14,IMU,-176.76,-142.09,-991.70,-0.56,0.76,1.36,-2.85,2.55,-68.85,30.8
2026/04/20 22:41:55.24,IMU,-166.50,-140.63,-998.54,0.52,-0.99,0.24,-4.20,3.90,-67.65,31.0
2026/04/20 22:41:55.34,IMU,-163.57,-146.97,-995.61,1.47,-0.79,-2.34,-1.05,3.00,-67.80,31.0
2026/04/20 22:41:55.44,IMU,-153.81,-154.79,-1005.86,0.73,0.50,-1.76,-2.85,2.55,-67.05,31.3
2026/04/20 22:41:55.54,IMU,-165.53,-137.70,-1004.88,0.70,1.45,-2.03,-4.35,3.00,-67.05,31.0
2026/04/20 22:41:55.64,IMU,-138.18,-138.67,-986.33,-0.86,-0.08,2.93,-2.55,3.00,-67.35,30.9
2026/04/20 22:41:55.74,IMU,-160.64,-133.79,-1004.39,0.20,-1.99,-2.96,-2.55,2.55,-66.30,31.1
2026/04/20 22:41:55.84,IMU,-155.76,-149.90,-1020.02,-1.51,0.53,0.93,-3.30,3.30,-67.05,31.1
2026/04/20 22:41:55.97,IMU,-156.25,-117.68,-1027.34,-3.92,-1.25,3.03,-6.30,0.15,-64.35,30.8
2026/04/20 22:41:56.07,IMU,-221.68,50.29,-961.91,7.69,1.33,0.88,-2.70,4.65,-67.95,30.9
2026/04/20 22:41:56.17,IMU,-208.98,-752.44,-1196.29,113.18,-49.77,-39.33,-1.95,3.60,-68.70,31.1
2026/04/20 22:41:56.27,IMU,-212.40,-310.55,-813.96,-13.11,24.66,4.67,-1.65,3.15,-68.70,31.1
2026/04/20 22:41:56.37,IMU,-258.79,-130.37,-1000.00,-4.53,-1.50,-5.57,-3.60,3.75,-68.10,30.9
2026/04/20 22:41:56.47,IMU,-148.44,-176.76,-1000.49,6.27,-4.18,7.74,-3.30,3.00,-69.30,31.0
2026/04/20 22:41:56.57,IMU,-189.45,-181.15,-998.05,1.47,0.84,2.05,-2.55,2.25,-67.80,31.3
2026/04/20 22:41:56.67,IMU,-142.58,-164.55,-1031.25,0.02,0.35,0.14,-2.55,2.25,-68.10,31.0
2026/04/20 22:41:56.77,IMU,-143.07,-137.21,-1012.21,-1.40,2.44,2.26,-3.60,0.75,-68.85,31.0
2026/04/20 22:41:56.87,IMU,-155.27,-151.86,-1005.86,-0.72,1.37,-3.05,-5.10,3.00,-68.85,31.1
2026/04/20 22:41:56.97,IMU,-174.80,-179.69,-988.77,-3.21,3.67,-2.53,-5.10,1.50,-68.10,31.1
2026/04/20 22:41:57.07,IMU,-215.33,-181.64,-966.80,-1.60,2.97,-1.89,-1.80,1.50,-68.85,31.2
2026/04/20 22:41:57.18,IMU,-174.32,-165.04,-993.65,-0.31,1.14,0.92,-3.45,2.70,-67.65,31.0
2026/04/20 22:41:57.28,IMU,-187.99,-160.64,-996.09,-0.19,-2.24,-1.41,-2.25,2.40,-67.20,31.2
2026/04/20 22:41:57.38,IMU,-175.78,-206.05,-1001.46,-1.45,-7.65,-1.86,-3.30,2.25,-67.35,30.9
2026/04/20 22:41:57.48,IMU,-222.17,-141.11,-951.17,1.07,4.00,1.12,-1.80,1.05,-68.85,31.4
2026/04/20 22:41:57.58,IMU,-144.04,-190.43,-1043.95,0.11,-8.37,0.58,-1.80,3.00,-68.10,31.1
2026/04/20 22:41:57.68,IMU,-184.57,-152.34,-999.51,4.41,7.53,-0.15,-3.00,2.40,-67.20,31.1
2026/04/20 22:41:57.78,IMU,-166.02,-170.41,-981.93,-2.36,-5.47,-1.78,-2.25,0.45,-67.95,31.2
2026/04/20 22:41:57.88,IMU,-222.17,-205.08,-1005.86,0.92,2.07,6.18,-2.55,2.55,-68.55,31.0
2026/04/20 22:41:57.98,IMU,-180.66,-131.35,-994.63,-0.25,-2.75,-6.04,-2.55,2.55,-67.35,31.0
2026/04/20 22:41:58.08,IMU,-235.84,-274.41,-1073.24,-6.55,5.30,-1.00,-1.80,2.25,-67.05,31.1
2026/04/20 22:41:58.18,IMU,-73.73,-118.16,-1061.04,10.23,8.47,16.11,-1.95,1.20,-70.20,31.2
2026/04/20 22:41:58.28,IMU,-71.78,-190.92,-1054.69,-8.69,-1.92,-9.04,-3.00,1.65,-66.90,31.1
2026/04/20 22:41:58.38,IMU,-264.16,-185.06,-952.64,-4.58,8.80,-4.75,-1.95,1.95,-67.20,31.2
2026/04/20 22:41:58.48,IMU,-207.03,-178.22,-975.10,-0.54,1.66,-0.25,-2.70,1.65,-67.95,31.1
2026/04/20 22:41:58.58,IMU,-232.42,-170.41,-968.26,3.08,-1.99,2.37,-2.85,0.00,-67.35,31.4
2026/04/20 22:41:58.68,IMU,-166.02,-166.99,-999.51,-2.40,-0.82,-3.50,-3.60,2.55,-68.10,31.5
2026/04/20 22:41:58.78,IMU,-159.67,-145.51,-993.16,-1.18,-4.83,1.60,-2.85,2.55,-68.85,31.4
2026/04/20 22:41:58.88,IMU,-205.08,-165.04,-1021.00,1.25,5.21,2.37,-1.80,0.75,-68.85,31.1
2026/04/20 22:41:58.98,IMU,-189.94,-165.53,-979.98,0.11,-2.58,-2.88,-2.55,1.50,-68.10,31.5
2026/04/20 22:41:59.09,IMU,-157.71,-184.57,-1010.25,1.75,-1.32,3.17,-3.75,1.65,-68.25,31.3
2026/04/20 22:41:59.19,IMU,-196.78,-159.18,-1009.77,-1.05,8.34,1.91,-3.45,1.65,-67.95,31.4
2026/04/20 22:41:59.29,IMU,-120.12,-122.07,-1015.63,1.66,-6.91,-2.25,-1.80,1.50,-68.10,31.5
2026/04/20 22:41:59.39,IMU,-217.29,-220.70,-984.38,3.00,1.86,1.81,-1.35,1.50,-67.05,31.1
2026/04/20 22:41:59.49,IMU,-169.92,-166.99,-999.51,-0.24,-0.79,0.71,-1.80,2.25,-69.30,31.5
2026/04/20 22:41:59.59,IMU,-155.27,-174.32,-1009.28,0.25,1.67,-0.68,-1.80,0.30,-67.35,31.7
2026/04/20 22:41:59.69,IMU,-165.53,-156.25,-1011.72,-3.52,0.53,-1.11,-3.30,1.80,-68.85,31.5
2026/04/20 22:41:59.79,IMU,-195.80,-183.59,-987.30,0.09,4.15,-0.72,-2.70,1.65,-68.70,31.6
2026/04/20 22:41:59.89,IMU,-181.15,-173.34,-991.21,-2.44,0.50,-0.30,-2.10,3.00,-68.85,31.5
2026/04/20 22:41:59.99,IMU,-147.95,-206.05,-1022.46,4.02,0.18,8.33,-2.55,1.50,-68.85,31.0
2026/04/20 22:42:00.10,IMU,-100.10,-156.74,-1029.30,0.04,-3.80,-3.03,-3.60,3.00,-68.10,31.5
2026/04/20 22:42:00.20,IMU,-133.30,-158.69,-1057.13,-0.51,2.38,-1.61,-2.10,1.05,-68.55,31.7
2026/04/20 22:42:00.30,IMU,-173.83,-152.83,-1017.58,-2.17,2.14,-1.51,-2.25,1.95,-69.00,31.5
2026/04/20 22:42:00.40,IMU,-166.50,-172.85,-986.33,-0.63,0.00,-2.08,-1.35,2.25,-69.30,31.2
2026/04/20 22:42:00.50,IMU,-174.80,-177.25,-996.58,-2.74,4.54,-1.92,-2.25,2.40,-68.70,31.7
2026/04/20 22:42:00.60,IMU,-198.24,-173.34,-973.63,-2.59,0.34,-1.77,-1.95,1.20,-68.70,31.7
2026/04/20 22:42:00.70,IMU,-185.55,-155.76,-991.21,0.42,-0.86,-0.22,-2.10,3.00,-68.55,31.4
2026/04/20 22:42:00.80,IMU,-195.31,-169.43,-999.02,0.21,2.21,-0.82,-2.25,1.65,-67.95,31.9
2026/04/20 22:42:00.90,IMU,-193.36,-156.74,-1013.18,1.04,2.21,2.25,-0.90,1.20,-67.65,31.7
2026/04/20 22:42:01.01,IMU,-178.22,-164.06,-1001.95,-0.11,-0.76,-0.72,-3.45,1.65,-67.95,31.8
2026/04/20 22:42:01.11,IMU,-190.43,-170.90,-1004.39,1.95,1.49,2.62,-6.90,0.30,-64.20,31.6
2026/04/20 22:42:01.21,IMU,-165.53,-164.06,-1017.09,-1.60,1.05,-0.62,-1.95,1.20,-68.70,31.7
2026/04/20 22:42:01.31,IMU,-166.02,-167.48,-1003.91,0.79,0.46,-1.80,-3.30,2.25,-67.80,31.9
2026/04/20 22:42:01.41,IMU,-179.69,-166.02,-988.28,-0.02,0.62,0.24,-1.95,1.95,-66.15,31.8
2026/04/20 22:42:01.51,IMU,-195.31,-186.52,-994.14,0.81,-0.63,1.21,-0.90,0.90,-68.25,31.8
2026/04/20 22:42:01.61,IMU,-179.20,-157.23,-1000.00,0.37,-0.11,0.46,-3.00,0.90,-67.20,31.9
2026/04/20 22:42:01.71,IMU,-173.83,-166.50,-1009.77,0.50,-1.18,0.40,-2.70,2.70,-69.45,31.7
2026/04/20 22:42:01.81,IMU,-165.04,-166.99,-999.02,-0.95,0.50,-1.56,-2.10,2.55,-67.35,31.8
2026/04/20 22:42:01.91,IMU,-187.01,-173.83,-997.56,-1.67,-0.31,0.53,-2.70,2.40,-68.25,31.7
2026/04/20 22:42:02.01,IMU,-169.92,-170.90,-1001.95,0.63,2.08,1.77,-2.10,2.25,-68.10,31.9
2026/04/20 22:42:02.11,IMU,-179.69,-162.11,-1008.79,0.92,0.67,-0.40,-3.30,1.05,-67.80,31.7
2026/04/20 22:42:02.22,IMU,-173.83,-177.73,-1003.91,0.58,1.85,-1.15,-2.55,1.80,-67.80,31.7
2026/04/20 22:42:02.32,IMU,-173.83,-175.78,-1015.14,-1.10,0.57,0.62,-2.25,1.20,-67.95,31.7
2026/04/20 22:42:02.42,IMU,-203.13,-177.25,-991.21,1.02,-1.39,1.41,-1.95,1.65,-67.95,32.0
2026/04/20 22:42:02.52,IMU,-228.52,-172.36,-957.52,3.36,0.13,-1.53,-3.30,1.50,-68.85,32.0
2026/04/20 22:42:02.62,IMU,-194.34,-164.06,-998.54,2.20,-2.01,1.18,-1.65,1.65,-67.95,31.9
2026/04/20 22:42:02.72,IMU,-169.43,-168.95,-1013.18,0.90,-0.94,0.94,-3.60,2.25,-67.35,32.2
2026/04/20 22:42:02.82,IMU,-171.39,-159.18,-986.82,-0.81,1.29,0.95,-3.75,1.65,-68.70,31.9
2026/04/20 22:42:02.93,IMU,-175.78,-169.43,-1011.72,-1.76,1.76,-0.99,-3.00,1.95,-68.70,32.1
2026/04/20 22:42:03.03,IMU,-172.85,-171.88,-999.02,0.76,2.14,-2.16,-1.80,1.50,-68.55,31.9
2026/04/20 22:42:03.13,IMU,-163.09,-165.04,-996.58,1.21,-0.30,-0.76,-2.70,2.40,-67.95,32.0
2026/04/20 22:42:03.23,IMU,-183.11,-176.27,-1000.98,0.15,0.34,-0.92,-3.30,1.80,-68.85,32.0
2026/04/20 22:42:03.33,IMU,-174.32,-166.50,-1007.32,0.31,0.15,-1.36,-2.55,1.80,-67.05,31.9
2026/04/20 22:42:03.43,IMU,-179.69,-172.36,-997.56,-0.53,2.71,-1.79,-2.10,1.05,-68.10,31.8
2026/04/20 22:42:03.53,IMU,-175.29,-177.25,-1003.91,1.53,0.67,-0.29,-2.25,1.65,-67.95,31.9
2026/04/20 22:42:03.63,IMU,-177.73,-172.36,-992.19,-1.11,-0.66,2.08,-2.55,1.50,-68.55,31.8
2026/04/20 22:42:03.73,IMU,-183.11,-164.06,-993.16,0.12,-1.31,0.96,-2.85,1.05,-67.80,32.0
2026/04/20 22:42:03.83,IMU,-168.46,-177.73,-1004.39,-1.26,2.19,0.02,-2.10,0.75,-68.10,32.1
2026/04/20 22:42:03.93,IMU,-182.62,-163.57,-1020.02,0.79,0.37,1.39,-2.10,0.75,-69.90,31.7
2026/04/20 22:42:04.03,IMU,-172.85,-167.48,-999.02,0.32,-0.11,-2.06,-1.65,1.65,-67.65,32.0
2026/04/20 22:42:04.14,IMU,-178.71,-178.71,-993.65,0.93,4.32,-1.01,-2.55,1.50,-68.10,32.0
2026/04/20 22:42:04.24,IMU,-185.06,-175.29,-1002.44,-1.00,0.81,-1.25,-3.45,0.90,-69.00,32.1
2026/04/20 22:42:04.34,IMU,-177.73,-171.39,-995.61,2.39,-1.96,-0.19,-2.85,3.30,-68.55,32.1
2026/04/20 22:42:04.44,IMU,-176.27,-169.92,-1000.00,1.28,-2.86,0.56,-2.55,0.75,-67.35,32.1
2026/04/20 22:42:04.54,IMU,-164.55,-166.99,-996.58,0.47,-0.93,1.25,-2.70,1.65,-67.95,31.9
2026/04/20 22:42:04.64,IMU,-167.48,-176.76,-1006.35,0.62,1.21,-1.60,-2.10,1.80,-68.10,32.0
2026/04/20 22:42:04.74,IMU,-180.66,-173.83,-1008.30,-0.92,1.84,2.10,-3.00,1.65,-66.90,32.1
2026/04/20 22:42:04.84,IMU,-174.32,-173.34,-991.21,1.82,1.71,-1.89,-0.90,1.65,-68.25,32.3
2026/04/20 22:42:04.94,IMU,-180.66,-173.83,-1019.04,0.11,-0.34,-1.55,-2.70,1.95,-69.45,31.9
2026/04/20 22:42:05.04,IMU,-184.57,-177.73,-1013.18,-1.47,-0.42,-1.30,-2.70,1.65,-69.00,31.9
2026/04/20 22:42:05.14,IMU,-164.55,-169.43,-1008.79,0.46,4.74,-1.26,-2.10,0.30,-67.80,31.9
2026/04/20 22:42:05.24,IMU,-168.95,-152.83,-986.82,0.18,0.99,-0.33,-1.80,1.05,-68.55,31.7
2026/04/20 22:42:05.34,IMU,-188.48,-172.36,-998.05,1.76,-0.58,0.08,-3.30,1.05,-68.85,31.7
2026/04/20 22:42:05.44,IMU,-186.52,-183.11,-1010.74,-0.57,2.89,0.21,-2.70,1.95,-67.95,31.9
2026/04/20 22:42:05.54,IMU,-201.66,-176.27,-998.05,1.96,2.29,1.41,-1.95,2.40,-69.45,31.7
2026/04/20 22:42:05.64,IMU,-180.18,-165.04,-992.19,-0.21,-0.82,3.53,-1.05,2.55,-68.10,31.5
2026/04/20 22:42:05.74,IMU,-164.06,-175.78,-989.26,1.08,1.95,-0.37,-2.55,1.50,-68.85,31.8
2026/04/20 22:42:05.84,IMU,-169.92,-179.20,-998.54,0.01,-0.84,-0.53,-2.70,1.95,-68.25,31.7
2026/04/20 22:42:05.94,IMU,-204.59,-171.88,-1006.35,0.44,-1.03,-0.06,-2.25,1.20,-68.25,31.7
2026/04/20 22:42:06.05,IMU,-179.69,-157.23,-998.54,-2.90,-0.69,0.16,-1.80,1.05,-68.10,31.8
2026/04/20 22:42:06.15,IMU,-183.59,-169.43,-981.93,1.08,-0.27,-1.50,-1.80,1.50,-68.85,31.7
2026/04/20 22:42:06.25,IMU,-190.43,-175.29,-987.30,0.65,2.69,2.76,-4.20,0.45,-65.10,31.8
2026/04/20 22:42:06.35,IMU,-187.50,-161.62,-996.09,-0.47,-2.26,3.85,-1.80,1.80,-67.80,31.7
2026/04/20 22:42:06.45,IMU,-170.41,-172.85,-1009.77,-0.05,-0.12,4.38,-1.35,1.50,-68.55,31.7
2026/04/20 22:42:06.55,IMU,-179.69,-167.97,-1014.16,0.60,3.90,-2.06,-1.05,0.75,-68.10,31.7
2026/04/20 22:42:06.65,IMU,-193.36,-173.83,-986.33,0.02,-1.52,-0.85,-2.85,2.25,-68.55,31.9
2026/04/20 22:42:06.75,IMU,-169.43,-167.48,-998.54,-0.77,1.43,-2.39,-4.50,2.40,-69.00,31.5
2026/04/20 22:42:06.85,IMU,-187.50,-181.15,-985.84,0.11,-1.02,0.40,-1.95,1.95,-68.25,31.7
2026/04/20 22:42:06.95,IMU,-182.13,-172.85,-1003.42,1.18,0.17,2.09,-1.95,0.15,-68.25,31.9
2026/04/20 22:42:07.05,IMU,-179.20,-165.04,-1010.25,-0.16,0.30,-1.66,-2.55,1.50,-68.10,31.7
2026/04/20 22:42:07.15,IMU,-187.01,-170.90,-1004.88,-0.76,-0.24,-0.57,-2.55,1.80,-67.35,31.9
2026/04/20 22:42:07.25,IMU,-192.87,-166.99,-1012.21,0.68,1.87,0.90,-4.50,-1.65,-63.60,31.7
2026/04/20 22:42:07.35,IMU,-168.95,-166.02,-989.75,1.37,-1.51,1.07,-2.25,1.65,-67.95,31.5
2026/04/20 22:42:07.45,IMU,-164.55,-179.69,-999.51,1.31,2.60,0.51,-2.70,1.20,-67.95,31.9
2026/04/20 22:42:07.55,IMU,-163.57,-152.83,-1006.35,0.73,-1.44,-2.01,-2.25,1.65,-68.70,31.7
2026/04/20 22:42:07.65,IMU,-191.41,-168.46,-1006.84,0.51,0.80,-0.74,-1.65,2.40,-68.70,31.5
2026/04/20 22:42:07.76,IMU,-193.36,-175.29,-1016.11,1.39,-1.54,1.10,-2.85,0.75,-68.85,31.9
2026/04/20 22:42:07.86,IMU,-184.57,-159.67,-1006.35,-0.94,1.57,-2.55,-3.45,1.65,-70.20,31.4
2026/04/20 22:42:07.96,IMU,-160.16,-177.73,-1027.34,1.10,-1.27,-0.89,-2.85,1.80,-67.35,31.5
2026/04/20 22:42:08.06,IMU,-194.34,-176.76,-1028.32,-0.93,1.15,-3.79,-1.65,2.70,-68.70,31.7
2026/04/20 22:42:08.16,IMU,-187.50,-187.50,-1003.42,-1.56,-0.49,1.82,-1.80,0.75,-67.35,31.9
2026/04/20 22:42:08.27,IMU,-179.20,-173.83,-1002.44,-1.62,1.15,0.04,-4.95,-1.20,-64.05,31.6
2026/04/20 22:42:08.37,IMU,-162.11,-179.20,-1013.18,1.60,0.46,-0.48,-2.55,-0.75,-68.10,31.6
2026/04/20 22:42:08.47,IMU,-185.55,-166.99,-1011.23,-1.37,0.43,-3.27,-3.00,0.45,-69.00,31.7
2026/04/20 22:42:08.57,IMU,-181.64,-175.29,-991.70,-1.68,4.52,0.70,-2.25,1.65,-69.00,31.7
2026/04/20 22:42:08.67,IMU,-195.31,-176.76,-995.61,0.15,-1.42,-1.04,-1.05,1.80,-69.30,31.8
2026/04/20 22:42:08.77,IMU,149.41,-283.69,-1318.36,-44.05,19.31,-14.50,-1.35,0.30,-68.10,31.4
2026/04/20 22:42:08.88,IMU,-335.45,-300.29,-1003.42,-1.14,23.45,-9.36,-1.05,1.05,-68.10,31.6
2026/04/20 22:42:08.98,IMU,-197.27,-229.98,-945.80,8.97,-11.98,5.73,-1.80,0.30,-69.30,31.7
2026/04/20 22:42:09.08,IMU,-186.52,-248.05,-1009.77,2.69,2.01,0.80,-1.05,1.80,-67.80,31.7
2026/04/20 22:42:09.18,IMU,-115.72,-131.84,-1000.49,-4.08,0.36,-1.25,-2.55,1.05,-68.55,31.7
2026/04/20 22:42:09.28,IMU,-174.32,-166.50,-1045.41,-0.17,1.88,2.93,-1.20,0.90,-68.70,31.7
2026/04/20 22:42:09.38,IMU,-198.73,-192.38,-951.66,0.40,0.31,0.15,-1.80,2.25,-68.55,31.9
2026/04/20 22:42:09.48,IMU,-186.52,-179.69,-1003.91,0.97,-0.77,-2.12,-2.70,0.90,-68.25,31.7
2026/04/20 22:42:09.58,IMU,-220.70,-172.36,-962.40,-0.89,4.80,-0.83,-1.35,0.30,-66.75,31.8
2026/04/20 22:42:09.68,IMU,-187.99,-169.43,-983.89,1.74,-4.56,2.40,-2.70,0.45,-67.20,31.7
2026/04/20 22:42:09.78,IMU,-195.31,-185.55,-1007.32,2.97,2.42,1.65,-2.25,0.15,-69.45,31.7
2026/04/20 22:42:09.88,IMU,-169.43,-176.76,-1006.84,1.21,-2.27,0.95,-2.10,2.25,-68.55,31.9
2026/04/20 22:42:09.98,IMU,-192.87,-163.57,-999.51,-1.45,1.36,0.95,-2.70,1.95,-65.85,31.7
2026/04/20 22:42:10.08,IMU,-167.48,-170.90,-1013.18,2.04,-1.30,-1.21,-1.65,2.40,-68.70,31.7
2026/04/20 22:42:10.18,IMU,-170.90,-180.66,-1000.98,0.28,0.15,0.70,-3.45,1.95,-68.70,31.7
2026/04/20 22:42:10.28,IMU,-170.90,-165.53,-1008.30,0.71,1.67,-0.06,-2.55,2.25,-69.30,31.7
2026/04/20 22:42:10.38,IMU,-185.55,-159.18,-994.63,2.02,1.69,0.19,-2.85,1.80,-67.35,31.7
2026/04/20 22:42:10.48,IMU,-185.55,-172.36,-998.05,0.66,0.69,-1.34,-3.45,1.20,-67.65,31.5
2026/04/20 22:42:10.58,IMU,-172.36,-171.88,-991.70,-1.30,-1.07,-0.92,-1.05,0.75,-67.80,31.7
2026/04/20 22:42:10.68,IMU,-183.59,-181.64,-990.72,-0.92,-0.47,0.58,-3.30,0.30,-66.30,31.9
2026/04/20 22:42:10.79,IMU,-183.59,-166.50,-994.14,0.17,-0.41,-1.50,-2.85,1.05,-68.55,31.7
2026/04/20 22:42:10.89,IMU,-191.89,-174.32,-995.61,-1.57,1.21,-1.81,-1.80,1.50,-67.80,31.5
2026/04/20 22:42:10.99,IMU,-177.73,-165.04,-993.65,0.41,1.61,3.41,-2.85,0.75,-67.80,31.9
2026/04/20 22:42:11.09,IMU,-187.50,-165.04,-1000.98,0.38,0.44,2.05,-1.80,1.80,-67.35,31.9
2026/04/20 22:42:11.19,IMU,-182.62,-173.83,-986.33,1.33,-0.91,1.69,-1.80,1.50,-68.10,31.7
2026/04/20 22:42:11.29,IMU,-182.13,-166.99,-1013.18,0.44,-0.49,0.71,-3.45,1.20,-68.25,31.7
2026/04/20 22:42:11.39,IMU,-181.15,-165.04,-1007.32,0.38,0.50,0.57,-3.30,2.25,-66.75,31.5
2026/04/20 22:42:11.49,IMU,-184.08,-180.66,-999.51,0.51,-1.10,-1.50,-1.80,1.50,-68.10,31.6
2026/04/20 22:42:11.59,IMU,-174.80,-161.13,-1002.44,-0.04,0.40,-0.63,-1.20,1.95,-66.15,31.7
2026/04/20 22:42:11.69,IMU,-165.53,-170.90,-1002.44,0.95,0.44,1.28,-3.75,1.65,-68.25,31.8
2026/04/20 22:42:11.79,IMU,-173.83,-167.97,-1007.32,0.87,0.21,-1.00,-1.65,2.40,-69.45,31.9
2026/04/20 22:42:11.90,IMU,-177.25,-164.55,-1010.74,-1.10,1.38,2.17,-3.60,2.25,-67.35,31.7
2026/04/20 22:42:12.00,IMU,-163.57,-183.11,-1001.46,-2.87,-0.56,3.61,-2.25,0.15,-68.25,31.8
2026/04/20 22:42:12.10,IMU,-180.66,-179.69,-996.09,-0.98,0.59,-0.29,-1.35,1.05,-69.30,31.8
2026/04/20 22:42:12.20,IMU,-176.76,-162.11,-1009.28,1.89,0.21,-0.66,-2.25,2.70,-66.15,32.0
2026/04/20 22:42:12.30,IMU,-188.96,-166.50,-999.02,0.41,-0.18,-1.08,-4.35,1.80,-67.80,32.1
2026/04/20 22:42:12.40,IMU,-188.96,-174.32,-1005.37,0.63,-2.64,0.65,-3.60,1.50,-68.55,31.7
2026/04/20 22:42:12.50,IMU,-188.48,-176.27,-1003.42,-0.59,-0.37,2.79,-2.25,1.20,-68.70,31.6
2026/04/20 22:42:12.60,IMU,-181.64,-171.39,-996.58,-1.21,1.63,2.02,-2.10,1.05,-66.75,31.9
2026/04/20 22:42:12.70,IMU,-176.76,-161.13,-995.61,1.01,0.03,1.92,-3.60,1.80,-67.35,31.9
2026/04/20 22:42:12.80,IMU,-176.76,-176.27,-992.19,0.55,-0.04,0.72,-2.85,2.25,-67.35,31.9
2026/04/20 22:42:12.90,IMU,-176.27,-166.02,-996.09,0.73,-1.46,-0.34,-3.30,1.50,-68.10,31.9
2026/04/20 22:42:13.00,IMU,-187.01,-173.34,-988.28,0.48,1.65,-1.05,-3.00,1.95,-67.65,31.9
2026/04/20 22:42:13.10,IMU,-174.80,-167.48,-998.05,0.02,1.34,-0.73,-2.25,1.65,-67.65,31.7
2026/04/20 22:42:13.20,IMU,-184.57,-179.69,-1006.35,1.23,1.27,-0.21,-3.00,2.70,-67.65,31.9
2026/04/20 22:42:13.31,IMU,-196.78,-164.06,-993.65,-2.99,2.47,1.25,-3.30,0.75,-66.75,31.9
2026/04/20 22:42:13.41,IMU,-231.93,-196.78,-963.38,2.07,0.74,0.35,-5.85,1.50,-64.95,31.8
2026/04/20 22:42:13.51,IMU,-212.89,-181.64,-988.28,6.03,-3.63,3.55,-2.25,1.95,-67.95,31.7
2026/04/20 22:42:13.61,IMU,-166.99,-168.95,-987.30,0.08,0.89,-1.02,-2.70,1.20,-67.95,31.8
2026/04/20 22:42:13.71,IMU,-169.43,-190.92,-1000.49,-0.31,-2.16,1.77,-2.25,2.40,-68.25,32.1
2026/04/20 22:42:13.81,IMU,-160.16,-163.09,-1057.13,5.21,-3.71,5.85,-2.70,3.15,-67.95,31.7
2026/04/20 22:42:13.91,IMU,-154.30,-186.04,-1016.11,-2.75,0.76,-3.40,-1.95,2.40,-67.65,32.0
2026/04/20 22:42:14.01,IMU,-104.49,-159.67,-1041.99,-1.62,3.95,1.89,-2.85,1.80,-67.35,31.5
2026/04/20 22:42:14.11,IMU,-210.45,-166.02,-992.19,-3.32,0.04,-3.29,-2.55,1.50,-68.55,31.9
2026/04/20 22:42:14.21,IMU,-192.87,-172.85,-991.21,-2.15,3.02,-1.99,-3.00,0.90,-67.95,32.0
2026/04/20 22:42:14.31,IMU,-208.01,-177.25,-980.96,-0.02,3.05,1.13,-1.95,-0.15,-69.45,31.9
2026/04/20 22:42:14.41,IMU,-190.43,-167.48,-984.86,0.79,1.89,1.80,-6.60,0.75,-63.15,31.9
2026/04/20 22:42:14.51,IMU,-198.73,-155.76,-997.56,2.57,-1.00,2.91,-1.95,0.90,-69.45,31.9
2026/04/20 22:42:14.61,IMU,-161.62,-150.88,-1016.60,0.39,-1.11,1.22,-3.00,2.70,-66.90,31.8
2026/04/20 22:42:14.71,IMU,-152.34,-158.69,-1011.72,2.15,-0.21,1.70,-3.00,1.65,-67.95,31.7
2026/04/20 22:42:14.82,IMU,-169.43,-180.66,-1001.46,-1.34,0.56,-0.76,-3.75,1.20,-66.90,31.9
2026/04/20 22:42:14.92,IMU,-174.32,-171.39,-1004.39,0.24,2.08,1.59,-2.85,1.50,-68.10,31.7
2026/04/20 22:42:15.02,IMU,-170.90,-166.99,-1012.21,-0.63,-2.82,-0.28,-2.85,2.25,-67.80,31.7
2026/04/20 22:42:15.12,IMU,-161.13,-152.34,-1006.84,-0.31,-0.82,2.59,-1.95,2.40,-66.90,31.8
2026/04/20 22:42:15.22,IMU,-183.11,-177.25,-1000.98,-0.76,2.63,-1.63,-1.95,1.65,-68.25,31.7
2026/04/20 22:42:15.32,IMU,-173.34,-170.90,-994.63,0.79,0.00,-0.19,-2.70,1.20,-67.95,31.9
2026/04/20 22:42:15.42,IMU,-165.53,-158.69,-1005.86,-0.30,2.31,1.91,-4.20,2.40,-69.00,31.7
2026/04/20 22:42:15.52,IMU,-172.36,-162.60,-1000.00,-0.31,-0.04,2.15,-2.25,1.65,-67.95,31.9
2026/04/20 22:42:15.62,IMU,-190.43,-169.92,-1001.46,-1.01,0.46,-1.33,-2.70,1.95,-67.95,31.9
2026/04/20 22:42:15.72,IMU,-173.34,-173.34,-1023.44,1.49,-0.41,0.79,-3.00,1.95,-67.95,32.1
2026/04/20 22:42:15.82,IMU,-167.48,-156.74,-1000.98,-0.52,0.21,-0.73,-3.00,2.40,-68.25,32.2
2026/04/20 22:42:15.92,IMU,-156.25,-162.11,-1014.65,-0.51,2.24,-1.44,-1.80,1.80,-68.10,31.9
2026/04/20 22:42:16.02,IMU,-182.62,-166.02,-1017.09,-1.23,-0.82,1.43,-2.25,1.20,-67.65,31.8
2026/04/20 22:42:16.12,IMU,-174.80,-166.50,-1000.00,0.95,0.07,-0.14,-3.00,1.20,-67.95,31.7
2026/04/20 22:42:16.22,IMU,-181.15,-160.16,-1004.39,-0.24,0.41,-1.15,-4.20,2.40,-67.95,31.9
2026/04/20 22:42:16.32,IMU,-182.62,-167.97,-998.05,0.44,1.38,2.65,-3.00,1.65,-67.95,31.9
2026/04/20 22:42:16.42,IMU,-181.15,-159.67,-998.05,0.47,-1.26,0.10,-2.10,1.80,-68.85,31.9
2026/04/20 22:42:16.53,IMU,-176.76,-161.62,-991.21,0.85,-1.56,-0.21,-1.95,1.65,-66.90,32.1
2026/04/20 22:42:16.63,IMU,-182.62,-157.23,-983.40,3.76,-1.18,1.86,-1.95,3.60,-67.20,31.9
2026/04/20 22:42:16.73,IMU,-189.45,-158.69,-1011.23,1.21,2.18,2.81,-2.85,2.55,-66.75,31.7
2026/04/20 22:42:16.83,IMU,-195.80,-160.16,-1003.91,0.24,-0.52,0.27,-3.75,1.95,-67.65,31.9
2026/04/20 22:42:16.93,IMU,-179.69,-163.09,-1000.00,0.15,-0.31,1.81,-3.45,1.65,-67.20,31.9
2026/04/20 22:42:17.03,IMU,-169.92,-167.48,-996.58,-0.14,0.22,-1.22,-3.45,1.65,-68.25,32.1
2026/04/20 22:42:17.13,IMU,-152.34,-146.00,-1001.95,0.08,-0.58,1.53,-2.25,2.40,-69.00,31.8
2026/04/20 22:42:17.23,IMU,-168.95,-155.76,-990.72,1.34,3.45,-0.01,-1.80,2.55,-67.80,31.9
2026/04/20 22:42:17.33,IMU,-187.99,-175.29,-998.54,-0.39,-0.42,0.22,-2.70,1.65,-69.00,32.0
2026/04/20 22:42:17.43,IMU,-171.88,-167.48,-993.65,-0.56,1.88,-0.36,-2.85,1.50,-67.05,31.8
2026/04/20 22:42:17.53,IMU,-173.83,-166.99,-999.02,0.55,2.13,-1.44,-3.00,1.20,-68.25,32.1
2026/04/20 22:42:17.63,IMU,-166.50,-171.39,-998.54,-0.24,-0.17,2.01,-2.10,2.55,-68.10,32.1
2026/04/20 22:42:17.73,IMU,-176.27,-165.04,-996.58,0.67,1.24,-1.72,-2.85,2.25,-68.85,31.7
2026/04/20 22:42:17.83,IMU,-197.27,-175.29,-1005.86,-0.68,0.62,1.53,-2.85,2.25,-67.35,32.0
2026/04/20 22:42:17.93,IMU,-189.94,-166.02,-991.21,-0.98,1.84,1.28,-3.30,2.25,-67.35,32.1
2026/04/20 22:42:18.04,IMU,-175.29,-160.16,-1003.42,1.27,1.51,-2.39,-2.10,1.80,-67.05,31.9
2026/04/20 22:42:18.14,IMU,-199.22,-167.48,-1003.42,-0.56,0.13,1.06,-3.00,1.95,-67.65,31.9
2026/04/20 22:42:18.24,IMU,-182.13,-162.11,-972.17,-0.49,-0.78,-1.85,-2.25,1.65,-67.65,31.9
2026/04/20 22:42:18.34,IMU,-191.89,-173.83,-989.75,-1.02,0.92,2.42,-2.55,2.25,-67.80,31.7
2026/04/20 22:42:18.44,IMU,-186.04,-168.46,-1001.95,0.18,-1.35,-1.93,-2.10,1.05,-67.35,31.9
2026/04/20 22:42:18.54,IMU,-175.29,-165.53,-997.56,0.75,-0.61,1.11,-3.75,0.45,-66.90,32.0
2026/04/20 22:42:18.64,IMU,-169.92,-176.27,-995.61,0.21,-0.84,-0.46,-1.80,0.75,-67.80,32.1
2026/04/20 22:42:18.74,IMU,-173.34,-170.41,-990.23,0.79,0.10,2.45,-2.25,1.20,-68.70,31.9
2026/04/20 22:42:18.85,IMU,-162.11,-183.59,-1006.84,-0.01,0.57,0.14,-2.85,1.80,-67.80,31.9
2026/04/20 22:42:18.95,IMU,-187.50,-168.46,-1013.67,0.47,1.01,-0.15,-2.55,0.00,-66.00,32.1
2026/04/20 22:42:19.05,IMU,-174.32,-155.76,-1005.37,-0.36,1.63,-3.25,-3.45,1.65,-67.65,31.9
2026/04/20 22:42:19.15,IMU,-172.85,-158.20,-990.23,-0.31,2.27,-2.63,-3.75,2.70,-67.95,32.0
2026/04/20 22:42:19.25,IMU,-167.97,-165.04,-1000.49,2.60,1.28,-1.02,-2.85,1.80,-68.85,32.2
2026/04/20 22:42:19.35,IMU,-172.85,-170.41,-996.09,-1.02,0.56,3.18,-2.25,1.95,-67.95,31.9
2026/04/20 22:42:19.45,IMU,-188.48,-166.99,-987.30,0.81,0.35,0.44,-3.45,1.95,-68.25,32.0
2026/04/20 22:42:19.55,IMU,-172.36,-164.55,-991.70,-0.45,0.36,1.40,-2.55,2.25,-68.55,32.1
2026/04/20 22:42:19.65,IMU,-174.80,-165.53,-1002.93,0.48,-1.76,-1.31,-3.30,1.50,-66.75,32.2
2026/04/20 22:42:19.75,IMU,-174.80,-166.02,-1004.88,1.77,-0.02,1.31,-3.45,1.80,-67.05,32.1
2026/04/20 22:42:19.85,IMU,-199.22,-170.90,-1001.95,1.08,-0.82,0.96,-3.30,2.55,-68.10,32.0
2026/04/20 22:42:19.95,IMU,-168.46,-158.20,-1005.86,-0.66,-0.93,-1.14,-2.55,1.50,-66.30,31.9
2026/04/20 22:42:20.05,IMU,-172.85,-172.36,-1006.35,0.65,1.47,0.02,-2.70,1.65,-67.65,31.8
2026/04/20 22:42:20.15,IMU,-180.18,-169.43,-985.35,1.23,0.99,0.60,-1.35,0.75,-66.30,32.0
2026/04/20 22:42:20.25,IMU,-211.43,-183.59,-992.68,-1.25,2.27,0.34,-1.80,1.05,-68.10,32.0
2026/04/20 22:42:20.35,IMU,-177.73,-167.48,-986.82,0.55,-0.72,0.24,-4.35,1.80,-68.55,32.2
2026/04/20 22:42:20.45,IMU,-180.66,-171.39,-987.30,1.73,-2.49,-0.08,-1.95,0.15,-68.70,31.9
2026/04/20 22:42:20.56,IMU,-173.83,-161.13,-1005.37,-0.53,-0.27,-2.97,-4.95,-0.90,-63.60,31.7
2026/04/20 22:42:20.66,IMU,-177.25,-169.92,-1009.28,0.41,-1.40,1.50,-1.35,3.00,-67.35,31.9
2026/04/20 22:42:20.76,IMU,-176.27,-169.92,-1010.74,-1.90,0.08,0.11,-2.85,1.80,-67.80,32.1
2026/04/20 22:42:20.86,IMU,-196.29,-177.73,-985.35,-0.95,0.99,-0.76,-2.55,0.75,-67.80,32.0
2026/04/20 22:42:20.96,IMU,-187.99,-176.27,-983.40,-1.44,1.05,0.87,-2.85,1.05,-67.05,32.1
2026/04/20 22:42:21.06,IMU,-182.13,-135.25,-998.54,-0.69,4.07,1.62,-2.70,2.70,-68.25,32.2
2026/04/20 22:42:21.16,IMU,-241.21,-208.01,-964.84,-0.71,-4.76,-0.05,-2.55,1.50,-67.05,32.2
2026/04/20 22:42:21.26,IMU,-218.26,-165.04,-964.84,2.44,-1.23,6.67,-2.85,1.80,-68.55,32.1
2026/04/20 22:42:21.36,IMU,-173.34,-164.55,-981.45,5.51,-3.91,2.91,-2.55,0.75,-67.35,31.9
2026/04/20 22:42:21.46,IMU,-157.71,-158.20,-1016.60,2.78,-1.47,2.19,-3.45,1.95,-67.95,31.9
2026/04/20 22:42:21.56,IMU,-173.34,-166.99,-1011.72,-0.44,-0.13,2.06,-1.80,3.00,-67.80,32.2
2026/04/20 22:42:21.66,IMU,-164.06,-159.67,-1016.11,-0.83,3.32,-1.04,-1.95,1.20,-67.65,32.0
2026/04/20 22:42:21.76,IMU,-203.13,-190.92,-1011.72,1.92,-4.13,0.66,-2.10,2.25,-67.05,32.1
2026/04/20 22:42:21.86,IMU,-168.95,-166.02,-1018.55,0.53,1.14,2.97,-3.00,2.40,-67.95,32.2
2026/04/20 22:42:21.97,IMU,-217.29,-193.85,-985.35,1.31,-0.21,0.41,-3.00,1.65,-67.95,31.9
2026/04/20 22:42:22.07,IMU,-215.33,-148.93,-966.80,0.82,-1.63,-0.06,-4.20,1.20,-67.20,32.1
2026/04/20 22:42:22.17,IMU,-167.48,-159.67,-1006.84,3.08,-4.33,2.92,-3.75,1.20,-68.25,32.1
2026/04/20 22:42:22.27,IMU,-198.73,-171.39,-1006.35,0.88,-0.70,3.28,-1.95,1.95,-66.90,32.3
2026/04/20 22:42:22.37,IMU,-148.93,-155.76,-1018.55,-0.95,3.79,-0.15,-2.70,1.65,-66.45,32.2
2026/04/20 22:42:22.47,IMU,-166.99,-158.69,-1006.35,1.21,-0.98,-0.64,-2.25,2.40,-68.25,32.1
2026/04/20 22:42:22.57,IMU,-166.02,-161.62,-1018.07,0.45,2.36,-0.51,-2.25,1.20,-66.15,31.9
2026/04/20 22:42:22.67,IMU,-175.29,-152.83,-1006.35,-1.31,2.49,2.67,-2.55,2.25,-67.80,32.1
2026/04/20 22:42:22.77,IMU,-164.55,-159.18,-998.54,-0.97,0.89,0.60,-4.50,0.15,-66.90,32.2
2026/04/20 22:42:22.87,IMU,-179.69,-154.79,-1002.93,0.84,-1.66,-0.40,-2.70,2.40,-67.65,32.4
2026/04/20 22:42:22.97,IMU,-159.67,-163.09,-994.14,-0.15,2.27,1.73,-1.35,2.55,-67.80,32.4
2026/04/20 22:42:23.07,IMU,-180.18,-172.85,-996.09,0.83,0.03,-0.49,-1.95,1.65,-67.65,32.3
2026/04/20 22:42:23.17,IMU,-174.80,-160.16,-1000.00,0.18,1.43,1.38,-1.05,2.25,-66.75,31.9
2026/04/20 22:42:23.27,IMU,-173.83,-167.48,-986.33,0.11,0.98,0.31,-3.00,0.45,-67.65,32.4
2026/04/20 22:42:23.37,IMU,-176.76,-179.20,-993.16,0.17,0.27,1.75,-3.90,1.05,-66.75,32.2
2026/04/20 22:42:23.47,IMU,-194.34,-166.50,-1012.70,0.53,2.93,-0.73,-2.70,3.60,-67.20,32.1
2026/04/20 22:42:23.57,IMU,-170.90,-166.02,-994.63,-0.18,1.22,-0.40,-3.45,1.65,-66.45,32.2
2026/04/20 22:42:23.67,IMU,-165.04,-168.95,-1000.00,-2.48,2.16,-1.40,-3.75,1.65,-67.20,32.3
2026/04/20 22:42:23.78,IMU,-170.41,-163.57,-1005.37,0.95,-0.13,-2.34,-3.45,2.70,-66.45,32.2
2026/04/20 22:42:23.88,IMU,-191.89,-181.15,-990.72,-0.84,3.69,1.34,-1.65,0.45,-67.65,32.3
2026/04/20 22:42:23.98,IMU,-188.48,-156.25,-1005.86,1.69,-0.15,-1.11,-2.85,2.25,-66.75,32.2
2026/04/20 22:42:24.08,IMU,-189.45,-148.93,-986.82,-0.54,-0.50,0.18,-2.55,1.50,-67.80,32.3
2026/04/20 22:42:24.18,IMU,-178.71,-155.76,-996.58,0.87,-2.53,0.37,-2.85,1.80,-68.10,32.4
2026/04/20 22:42:24.28,IMU,-191.89,-160.64,-985.35,1.27,-0.04,0.88,-2.25,2.70,-67.20,32.4
2026/04/20 22:42:24.38,IMU,-181.15,-169.43,-983.40,2.37,1.31,0.16,-3.45,1.20,-68.25,32.2
2026/04/20 22:42:24.48,IMU,-184.57,-157.71,-1005.86,1.91,2.94,-0.13,-1.80,1.05,-67.05,32.3
2026/04/20 22:42:24.58,IMU,-176.27,-170.90,-996.58,1.13,-0.95,1.30,-3.60,1.05,-67.80,32.2
2026/04/20 22:42:24.68,IMU,-184.08,-154.79,-986.82,1.26,-2.28,0.31,-1.95,1.20,-66.90,32.3
2026/04/20 22:42:24.78,IMU,-181.15,-161.13,-994.14,-0.60,0.12,-2.58,-3.45,1.20,-67.20,32.3
2026/04/20 22:42:24.88,IMU,-180.66,-156.25,-991.21,-1.01,0.47,0.97,-1.80,2.55,-67.35,32.2
2026/04/20 22:42:24.98,IMU,-174.32,-161.13,-991.70,-0.81,-0.98,1.39,-3.00,2.70,-67.20,32.2
2026/04/20 22:42:25.08,IMU,-172.85,-156.25,-996.58,0.91,-0.77,-2.31,-2.85,1.80,-66.75,32.6
2026/04/20 22:42:25.18,IMU,-179.20,-151.37,-1004.39,-0.27,-1.85,-2.33,-3.60,1.80,-67.35,32.5
2026/04/20 22:42:25.28,IMU,-181.64,-164.55,-999.51,0.79,-1.53,0.37,-3.30,0.00,-67.05,32.6
2026/04/20 22:42:25.38,IMU,-181.15,-160.64,-1011.72,-0.35,0.83,-0.91,-3.30,1.05,-67.35,32.4
2026/04/20 22:42:25.48,IMU,-175.78,-166.50,-994.63,0.95,-1.04,-0.70,-1.80,2.25,-67.80,32.4
2026/04/20 22:42:25.59,IMU,-179.20,-163.57,-1002.44,-0.21,-1.37,-0.31,-2.70,1.20,-69.45,32.4
2026/04/20 22:42:25.69,IMU,-185.06,-169.43,-994.63,1.37,-0.69,0.72,-5.70,0.45,-65.40,32.4
2026/04/20 22:42:25.79,IMU,-183.59,-162.60,-996.58,1.47,-0.82,2.18,-2.85,1.50,-67.80,32.2
2026/04/20 22:42:25.89,IMU,-172.85,-166.50,-1006.84,0.08,-3.17,-0.04,-1.65,1.95,-67.95,32.5
2026/04/20 22:42:25.99,IMU,-188.96,-168.95,-995.61,2.66,-0.48,4.79,-4.95,-0.90,-64.05,32.4
2026/04/20 22:42:26.09,IMU,-163.57,-167.48,-1005.86,0.18,1.85,0.78,-3.60,2.25,-67.05,32.5
2026/04/20 22:42:26.19,IMU,-163.57,-168.95,-1003.91,1.10,0.28,-2.98,-1.95,1.20,-66.90,32.4
2026/04/20 22:42:26.29,IMU,-170.90,-155.76,-986.33,1.28,0.24,1.00,-1.95,1.20,-66.90,32.4
2026/04/20 22:42:26.39,IMU,-169.43,-167.97,-1002.44,0.00,1.50,1.48,-3.75,1.95,-67.95,32.4
2026/04/20 22:42:26.50,IMU,-179.69,-163.09,-999.02,1.95,-0.06,0.28,-2.85,1.80,-67.80,32.4
2026/04/20 22:42:26.60,IMU,-181.64,-167.97,-1008.79,-0.18,-0.92,0.15,-3.00,2.40,-67.95,32.6
2026/04/20 22:42:26.70,IMU,-176.27,-170.41,-991.21,1.47,-0.47,-0.91,-4.20,0.15,-65.10,32.6
2026/04/20 22:42:26.80,IMU,-186.52,-158.20,-1001.46,-0.78,2.18,0.05,-1.80,2.55,-67.35,32.6
2026/04/20 22:42:26.90,IMU,-175.29,-168.46,-1005.37,1.38,1.15,2.73,-3.60,2.55,-67.05,32.4
2026/04/20 22:42:27.01,IMU,-183.59,-174.32,-995.12,1.21,0.95,1.25,-2.55,2.25,-67.05,32.6
2026/04/20 22:42:27.11,IMU,-180.18,-162.60,-997.56,-1.80,0.30,1.63,-2.85,2.25,-67.80,32.6
2026/04/20 22:42:27.21,IMU,-185.06,-166.99,-1000.00,-0.37,0.68,-1.10,-2.70,1.95,-67.20,32.5
2026/04/20 22:42:27.31,IMU,-180.18,-168.95,-1017.09,-0.12,1.75,-1.22,-2.25,1.20,-67.20,32.5
2026/04/20 22:42:27.41,IMU,-178.22,-174.80,-1002.44,1.29,-1.55,-0.75,-2.55,1.80,-68.85,32.8
2026/04/20 22:42:27.51,IMU,-175.78,-159.67,-990.72,0.84,-1.15,2.37,-3.60,0.30,-68.10,32.7
2026/04/20 22:42:27.61,IMU,-180.66,-155.76,-1008.30,-0.08,1.47,0.50,-3.00,1.20,-67.95,32.3
2026/04/20 22:42:27.72,IMU,-168.95,-166.50,-993.16,-0.25,0.62,-2.88,-6.30,-1.95,-62.25,32.4
2026/04/20 22:42:27.82,IMU,-182.13,-163.57,-996.09,-0.11,-0.44,1.34,-1.80,2.55,-67.80,32.5
2026/04/20 22:42:27.92,IMU,-183.59,-167.48,-996.58,0.82,2.78,0.44,-2.70,1.65,-66.90,32.6
