Timestamp,Sensor,AccX,AccY,AccZ,GyrX,GyrY,GyrZ,MagX,MagY,MagZ,Temp
2000/01/01 00:00:17.27,IMU,-443.85,111.82,-871.58,-6.34,3.95,9.44,-0.90,4.35,-35.55,25.3
2000/01/01 00:00:17.37,IMU,-579.10,156.25,-943.36,-43.58,-30.60,11.66,2.25,6.60,-40.95,25.4
2000/01/01 00:00:17.47,IMU,-712.89,263.67,-624.51,-114.63,-140.13,8.63,7.95,11.25,-37.80,25.4
2000/01/01 00:00:17.57,IMU,-716.80,421.88,-577.64,24.47,-9.24,-21.33,12.45,14.40,-34.65,25.2
2000/01/01 00:00:17.67,IMU,-875.98,357.91,-503.91,-157.50,2.99,-41.76,10.95,13.95,-35.25,25.4
2000/01/01 00:00:17.78,IMU,-733.40,544.43,-346.68,-77.67,-31.63,1.41,14.10,18.30,-34.35,25.3
2000/01/01 00:00:17.88,IMU,-675.29,486.33,-386.23,7.94,-21.78,9.97,11.85,20.25,-34.80,25.0
2000/01/01 00:00:17.98,IMU,-947.75,559.08,-317.87,14.82,-45.47,-12.32,14.40,20.25,-31.20,25.4
2026/05/04 21:44:34.06,IMU,-919.92,468.75,-368.16,53.47,-5.47,7.82,14.40,17.55,-30.45,25.3
2026/05/04 21:44:34.16,IMU,-913.57,440.92,-339.36,-5.79,-22.55,-33.42,14.85,14.85,-28.20,25.3
2026/05/04 21:44:34.26,IMU,-923.83,358.40,-181.64,-84.27,-50.25,-76.45,15.90,15.30,-23.25,25.2
2026/05/04 21:44:34.36,IMU,-807.13,389.65,65.43,-97.45,-25.29,-7.58,16.65,19.80,-21.75,25.3
2026/05/04 21:44:34.46,IMU,-839.36,485.35,-142.58,33.64,-3.28,38.16,17.40,22.50,-22.80,25.4
2026/05/04 21:44:34.56,IMU,-726.07,539.55,-41.50,39.25,12.13,25.07,17.40,23.25,-21.75,25.4
2026/05/04 21:44:34.66,IMU,-866.70,487.79,-212.40,55.60,45.44,-9.11,17.40,21.75,-25.05,25.6
2026/05/04 21:44:34.76,IMU,-734.86,618.65,-399.90,250.13,-250.14,117.37,17.10,19.05,-20.25,25.3
2026/05/04 21:44:34.86,IMU,-848.63,128.42,-288.09,-250.14,238.27,-40.76,18.45,20.25,-15.30,25.3
2026/05/04 21:44:34.96,IMU,-425.29,1140.63,-210.94,-250.14,-250.14,89.78,17.70,24.45,-15.60,25.4
2026/05/04 21:44:35.06,IMU,-800.29,1757.32,1774.90,250.13,-239.97,250.13,6.90,29.55,15.45,25.4
2026/05/04 21:44:35.16,IMU,-513.67,783.69,286.13,53.16,25.13,-12.17,7.50,34.35,11.25,25.4
2026/05/04 21:44:35.26,IMU,-542.97,789.06,177.73,7.76,20.19,6.14,10.05,35.40,11.25,25.3
2026/05/04 21:44:35.36,IMU,-474.61,708.01,300.78,-10.83,-3.69,0.24,9.75,36.15,11.70,25.4
2026/05/04 21:44:35.46,IMU,-492.68,819.34,301.27,-5.34,-5.22,25.98,8.40,35.55,12.15,25.4
2026/05/04 21:44:35.56,IMU,-494.63,872.56,367.19,3.13,5.98,27.86,7.05,37.35,10.50,25.5
2026/05/04 21:44:35.66,IMU,-416.02,817.38,384.28,29.45,3.53,17.84,8.55,35.85,12.00,25.4
2026/05/04 21:44:35.76,IMU,-451.17,847.66,261.72,-0.86,-10.17,8.08,7.80,35.85,10.95,25.4
2026/05/04 21:44:35.86,IMU,-425.29,787.11,230.96,13.93,3.21,9.97,6.30,37.65,12.00,25.6
2026/05/04 21:44:35.96,IMU,-507.32,845.70,276.86,11.65,0.41,-2.42,7.05,37.35,12.75,25.3
2026/05/04 21:44:36.08,IMU,-465.82,884.77,355.47,-32.48,-10.41,4.29,6.90,37.20,12.15,25.3
2026/05/04 21:44:36.18,IMU,-359.86,796.88,346.68,17.26,0.24,-14.02,7.50,36.90,12.00,25.2
2026/05/04 21:44:36.28,IMU,-447.75,710.45,420.90,8.88,4.93,-13.63,7.05,35.85,12.75,25.3
2026/05/04 21:44:36.38,IMU,-484.38,820.80,205.08,-41.30,15.24,4.41,8.25,35.10,14.25,25.4
2026/05/04 21:44:36.48,IMU,-476.56,822.75,656.74,8.73,5.26,4.31,8.25,35.40,12.00,25.4
2026/05/04 21:44:36.58,IMU,-508.30,853.52,423.34,-3.11,6.25,-1.66,9.15,36.75,12.15,25.4
2026/05/04 21:44:36.68,IMU,-522.95,861.33,415.53,-27.21,-8.66,-16.94,7.35,36.75,12.60,25.3
2026/05/04 21:44:36.78,IMU,-303.71,954.59,523.93,155.79,10.92,-97.28,7.50,36.90,12.75,25.3
2026/05/04 21:44:36.88,IMU,-894.04,457.03,152.34,38.11,187.04,-146.40,15.45,29.55,4.95,25.6
2026/05/04 21:44:36.98,IMU,-747.07,556.64,-39.06,-36.75,111.14,-24.95,19.50,29.10,-4.95,25.4
2026/05/04 21:44:37.08,IMU,-653.81,537.11,-139.65,-20.40,144.48,-104.04,20.85,23.85,-12.15,25.4
2026/05/04 21:44:37.18,IMU,-591.31,128.42,-835.45,21.88,163.96,-62.51,17.40,16.50,-27.15,25.6
2026/05/04 21:44:37.28,IMU,-619.63,250.00,-607.91,-17.48,93.09,-143.27,16.50,14.70,-30.60,25.3
2026/05/04 21:44:37.38,IMU,-453.61,532.23,-1132.81,-20.69,90.31,-80.79,6.30,7.65,-43.35,25.3
2026/05/04 21:44:37.48,IMU,-454.59,45.90,-568.85,62.96,-160.79,-65.89,3.75,4.35,-40.95,25.4
2026/05/04 21:44:37.58,IMU,-743.16,-55.66,-670.90,115.63,53.83,77.66,7.95,1.50,-34.65,25.4
2026/05/04 21:44:37.68,IMU,-588.38,63.96,-991.70,-141.36,189.65,-125.41,0.45,-1.20,-41.25,25.4
2026/05/04 21:44:37.78,IMU,-417.48,-49.80,-717.29,13.36,45.42,-10.40,-4.65,-0.30,-43.20,25.2
2026/05/04 21:44:37.89,IMU,-208.01,140.63,-918.46,74.44,35.39,-37.88,-13.50,0.00,-45.75,25.6
2026/05/04 21:44:37.99,IMU,-165.04,-81.54,-1022.95,-5.39,42.05,-14.37,-15.15,-0.90,-44.10,25.5
2026/05/04 21:44:38.09,IMU,-167.97,-47.36,-1004.39,-22.77,18.96,-3.92,-17.40,-1.20,-44.10,25.7
2026/05/04 21:44:38.19,IMU,-197.27,36.13,-1072.27,-15.63,11.45,-2.00,-20.10,0.00,-43.65,25.4
2026/05/04 21:44:38.29,IMU,-295.90,-100.59,-971.68,-3.95,22.99,-10.28,-19.20,-0.15,-44.55,25.5
2026/05/04 21:44:38.39,IMU,-438.48,-105.47,-670.41,-31.90,-24.09,-35.10,-22.50,-0.90,-45.15,25.5
2026/05/04 21:44:38.49,IMU,-75.20,77.64,-1036.13,-1.03,-31.75,-23.21,-22.35,-1.05,-45.00,25.6
2026/05/04 21:44:38.59,IMU,-156.74,25.39,-995.12,28.06,12.25,-7.92,-23.85,-1.50,-44.70,25.4
2026/05/04 21:44:38.69,IMU,-73.73,26.37,-1057.62,7.86,-1.42,-14.20,-24.45,0.15,-44.55,25.3
2026/05/04 21:44:38.79,IMU,-103.52,-30.76,-1057.62,23.54,-5.15,0.43,-25.20,-0.45,-44.85,25.4
2026/05/04 21:44:38.89,IMU,-110.84,-64.94,-1002.93,8.66,14.53,4.55,-24.90,-2.55,-43.65,25.4
2026/05/04 21:44:38.99,IMU,-60.55,-42.97,-1049.32,17.98,4.63,-5.47,-25.65,-3.00,-43.20,25.4
2026/05/04 21:44:39.09,IMU,-45.90,-103.52,-974.61,13.31,13.47,0.56,-24.75,-3.90,-42.00,25.4
2026/05/04 21:44:39.19,IMU,-74.71,-169.92,-965.33,43.55,-13.35,-15.69,-24.00,-4.65,-40.50,25.2
2026/05/04 21:44:39.30,IMU,-47.36,-178.71,-964.84,10.63,5.58,0.15,-26.55,-6.15,-39.75,25.2
2026/05/04 21:44:39.40,IMU,-33.69,-166.02,-946.78,-13.38,4.00,-3.71,-27.75,-8.40,-36.60,25.4
2026/05/04 21:44:39.50,IMU,-52.25,-168.46,-1017.58,12.56,-9.21,-9.82,-27.90,-5.55,-39.60,25.4
2026/05/04 21:44:39.60,IMU,-117.19,-186.04,-972.17,9.20,-18.81,1.38,-26.10,-5.55,-40.35,25.4
2026/05/04 21:44:39.70,IMU,-132.32,-275.88,-934.08,29.79,-21.29,1.62,-26.25,-7.65,-39.15,25.6
2026/05/04 21:44:39.80,IMU,-85.94,-158.69,-1007.81,-40.69,-6.82,10.48,-24.15,-6.45,-39.60,25.2
2026/05/04 21:44:39.90,IMU,-131.35,-106.45,-1007.81,12.84,8.40,21.61,-23.10,-6.45,-41.10,25.4
2026/05/04 21:44:40.00,IMU,-82.52,-113.77,-1125.49,-13.31,13.48,0.61,-21.15,-6.60,-42.00,25.4
2026/05/04 21:44:40.10,IMU,-182.13,-46.88,-972.66,7.98,9.88,-4.15,-23.10,-6.45,-41.10,25.6
2026/05/04 21:44:40.20,IMU,-160.16,-111.82,-939.94,-3.09,-4.32,0.83,-22.50,-5.10,-41.55,25.1
2026/05/04 21:44:40.30,IMU,-55.66,-62.99,-1037.60,-5.11,-11.11,-14.61,-23.25,-3.90,-42.30,25.4
2026/05/04 21:44:40.40,IMU,-68.85,-73.73,-986.33,-9.05,2.70,-2.23,-27.30,-5.40,-39.15,25.4
2026/05/04 21:44:40.50,IMU,-28.32,-68.85,-1024.41,-17.70,10.30,-10.88,-24.15,-1.80,-44.25,25.5
2026/05/04 21:44:40.60,IMU,-53.22,-51.76,-996.58,-6.27,14.45,-4.60,-25.65,-2.25,-42.90,25.7
2026/05/04 21:44:40.70,IMU,10.74,-20.51,-1027.83,10.24,2.49,-5.14,-24.90,-2.25,-44.25,25.4
2026/05/04 21:44:40.80,IMU,-9.28,-66.89,-1001.95,24.75,-20.05,-5.81,-25.65,-3.30,-43.95,25.3
2026/05/04 21:44:40.90,IMU,-110.35,-36.62,-1022.46,-1.97,3.89,-2.34,-25.50,-2.40,-42.75,25.4
2026/05/04 21:44:41.00,IMU,-44.43,-101.07,-1097.17,-9.63,-16.57,-0.41,-26.10,-2.25,-42.90,25.5
2026/05/04 21:44:41.10,IMU,-48.83,-78.61,-1015.63,8.50,-2.69,-6.12,-24.75,-3.60,-43.35,25.4
2026/05/04 21:44:41.20,IMU,-68.85,-61.04,-984.38,-8.32,2.04,-4.67,-24.90,-4.05,-44.25,25.2
2026/05/04 21:44:41.30,IMU,-50.29,-32.71,-1003.91,-9.63,1.88,3.05,-24.15,-2.25,-43.95,25.4
2026/05/04 21:44:41.41,IMU,-66.41,-50.29,-1001.95,1.90,-0.56,3.98,-25.80,-5.85,-42.00,25.3
2026/05/04 21:44:41.51,IMU,-95.21,-43.95,-1014.16,-8.15,-1.26,3.22,-23.85,-3.00,-43.20,25.6
2026/05/04 21:44:41.61,IMU,-78.12,-62.99,-1015.63,7.64,-13.85,-1.67,-24.45,-2.70,-44.10,25.7
2026/05/04 21:44:41.71,IMU,-79.59,-32.71,-992.68,-5.34,-7.10,-3.18,-23.10,-2.25,-45.45,25.4
2026/05/04 21:44:41.81,IMU,-80.57,-41.99,-1010.25,3.63,-4.71,2.14,-23.25,-1.95,-43.80,25.3
2026/05/04 21:44:41.91,IMU,-150.39,-48.83,-1036.13,-0.71,-8.21,-0.92,-23.85,-3.00,-45.45,25.7
2026/05/04 21:44:42.02,IMU,-130.86,-49.80,-1012.70,1.08,-4.13,5.35,-22.80,-1.80,-43.65,25.7
2026/05/04 21:44:42.12,IMU,-126.46,-43.46,-995.12,1.03,-0.56,1.92,-22.20,-2.40,-43.35,25.5
2026/05/04 21:44:42.22,IMU,-172.36,-16.60,-1043.95,-4.17,-11.60,-0.94,-22.20,-1.95,-43.80,25.7
2026/05/04 21:44:42.32,IMU,-149.41,-41.99,-991.70,-1.17,-5.46,3.47,-21.45,-1.65,-42.30,25.6
2026/05/04 21:44:42.43,IMU,-162.60,-20.02,-1013.67,-1.21,-0.69,-2.95,-24.60,-3.75,-38.55,25.6
2026/05/04 21:44:42.53,IMU,-186.52,-32.71,-981.93,1.94,-3.31,-2.32,-19.50,-1.50,-43.95,25.7
2026/05/04 21:44:42.63,IMU,-125.00,0.98,-1009.28,3.39,4.28,-1.18,-21.45,-0.45,-43.80,25.7
2026/05/04 21:44:42.73,IMU,-162.11,-19.04,-1024.41,-3.18,-0.83,5.21,-20.70,-2.40,-43.05,25.6
2026/05/04 21:44:42.83,IMU,-186.52,-50.78,-957.52,-0.71,-7.68,3.56,-20.40,-2.40,-44.10,25.7
2026/05/04 21:44:42.93,IMU,-175.78,-3.42,-1009.77,-1.91,2.51,0.69,-19.65,-2.40,-45.15,25.7
2026/05/04 21:44:43.03,IMU,-156.25,-17.09,-995.61,-0.56,4.70,4.89,-19.65,-1.95,-43.80,25.5
2026/05/04 21:44:43.13,IMU,-154.79,-44.92,-1018.07,-2.27,1.72,-0.16,-21.30,-2.25,-43.95,25.4
2026/05/04 21:44:43.23,IMU,-169.43,-20.51,-993.16,1.84,2.43,2.24,-21.45,-1.65,-43.05,25.7
2026/05/04 21:44:43.33,IMU,-189.45,-21.48,-990.23,-3.05,1.24,2.74,-20.70,-2.40,-45.60,25.8
2026/05/04 21:44:43.43,IMU,-161.62,-10.74,-1000.98,-0.79,3.25,2.51,-20.85,-1.50,-43.65,25.3
2026/05/04 21:44:43.53,IMU,-129.88,-38.57,-1013.67,-3.94,3.02,-0.36,-21.60,-1.80,-45.00,25.4
2026/05/04 21:44:43.63,IMU,-128.42,25.39,-990.23,-2.50,3.75,2.16,-19.95,-0.15,-43.80,25.8
2026/05/04 21:44:43.73,IMU,-130.86,-24.41,-1024.41,1.50,-2.86,5.31,-20.70,-1.65,-45.15,25.4
2026/05/04 21:44:43.84,IMU,-169.92,-11.72,-986.82,0.44,-0.73,0.33,-19.20,-1.95,-45.15,25.7
2026/05/04 21:44:43.94,IMU,-175.29,10.25,-1015.14,0.82,0.50,-0.01,-21.15,-1.20,-45.90,25.7
2026/05/04 21:44:44.04,IMU,-160.64,-18.07,-1023.44,4.11,-5.92,3.82,-21.30,-2.25,-44.70,25.7
2026/05/04 21:44:44.14,IMU,-96.68,-21.97,-1048.83,1.66,-2.18,0.48,-20.55,-2.25,-44.70,25.7
2026/05/04 21:44:44.24,IMU,-155.27,-8.30,-1009.77,5.50,-3.35,-3.27,-20.85,-1.50,-43.95,25.7
2026/05/04 21:44:44.34,IMU,-207.03,-45.41,-1002.44,1.03,-5.13,-1.01,-19.95,-2.70,-43.35,25.7
2026/05/04 21:44:44.44,IMU,-204.59,-27.83,-1034.18,2.76,-8.15,-7.21,-19.20,-1.95,-43.35,25.7
2026/05/04 21:44:44.54,IMU,-216.31,-35.16,-992.68,-0.14,-2.09,1.28,-19.95,-2.40,-43.35,25.7
2026/05/04 21:44:44.64,IMU,-217.77,-48.34,-984.38,2.09,0.13,0.22,-19.05,-1.50,-44.25,25.6
2026/05/04 21:44:44.74,IMU,-162.11,-35.64,-1003.91,0.96,1.42,-0.24,-18.75,-3.00,-43.95,25.4
2026/05/04 21:44:44.84,IMU,-186.04,-28.32,-996.58,-1.39,1.95,2.69,-18.30,-2.25,-43.20,25.8
2026/05/04 21:44:44.94,IMU,-204.10,-23.44,-979.49,-3.22,3.31,-0.91,-18.90,-2.70,-44.10,25.7
2026/05/04 21:44:45.04,IMU,-202.15,-44.43,-1011.72,0.83,-1.73,0.13,-19.20,-3.15,-43.35,25.7
2026/05/04 21:44:45.14,IMU,-228.03,-33.20,-992.19,-3.15,-4.39,-3.72,-19.50,-1.80,-45.75,25.9
2026/05/04 21:44:45.24,IMU,-191.41,-26.86,-1010.25,0.05,-6.11,-4.67,-19.65,-0.45,-43.80,25.9
2026/05/04 21:44:45.34,IMU,-186.52,-18.07,-1021.97,0.44,-3.24,-2.85,-17.70,-0.90,-43.80,25.7
2026/05/04 21:44:45.44,IMU,-133.30,21.48,-1041.02,-2.56,-5.99,5.03,-19.20,-1.95,-44.10,25.6
2026/05/04 21:44:45.54,IMU,-204.10,-42.48,-1000.00,2.44,-2.69,3.37,-17.70,-2.70,-45.60,25.8
2026/05/04 21:44:45.64,IMU,-251.95,-51.27,-982.42,1.36,0.41,1.62,-18.15,-1.65,-44.55,25.9
2026/05/04 21:44:45.74,IMU,-279.30,-26.86,-965.82,-1.03,-3.30,1.17,-18.00,-1.80,-42.45,25.7
2026/05/04 21:44:45.84,IMU,-249.51,-21.00,-962.89,-1.73,-0.72,2.56,-18.45,-1.65,-44.10,25.7
2026/05/04 21:44:45.94,IMU,-234.86,-37.60,-999.02,-1.93,2.13,2.68,-18.90,-2.40,-42.30,25.7
2026/05/04 21:44:46.04,IMU,-222.66,-32.23,-979.98,-3.26,4.62,-1.50,-18.00,-2.55,-43.20,25.7
2026/05/04 21:44:46.14,IMU,-197.75,-2.93,-1007.81,-1.50,4.96,2.28,-18.15,-1.95,-44.10,25.9
2026/05/04 21:44:46.24,IMU,-213.38,-0.98,-1002.93,-0.40,-0.55,1.60,-17.55,-0.75,-43.65,25.8
2026/05/04 21:44:46.34,IMU,-243.65,-23.44,-982.42,1.09,3.70,3.15,-16.80,-1.50,-45.45,25.7
2026/05/04 21:44:46.44,IMU,-202.64,6.84,-996.09,-1.61,1.86,4.55,-17.40,-0.45,-43.35,25.9
2026/05/04 21:44:46.54,IMU,-214.36,1.46,-988.28,1.12,-6.76,-0.64,-18.45,-0.45,-45.60,25.7
2026/05/04 21:44:46.64,IMU,-254.88,-19.04,-967.29,1.32,0.37,-1.02,-17.25,-1.80,-43.95,25.9
2026/05/04 21:44:46.74,IMU,-231.93,-4.39,-980.96,-0.25,-0.75,-3.64,-17.40,-1.65,-45.15,25.9
2026/05/04 21:44:46.84,IMU,-212.89,7.32,-1004.39,0.53,-0.79,-0.40,-18.00,-2.25,-44.25,25.9
2026/05/04 21:44:46.94,IMU,-209.47,-14.16,-986.82,3.52,-1.28,-2.63,-17.40,-1.20,-43.35,25.6
2026/05/04 21:44:47.04,IMU,-225.10,-13.67,-971.68,-0.73,-0.41,-3.65,-18.45,-1.95,-45.15,25.9
2026/05/04 21:44:47.14,IMU,-231.45,-6.35,-991.70,1.40,2.31,-1.20,-18.75,-0.30,-43.20,25.9
2026/05/04 21:44:47.24,IMU,-229.00,2.44,-972.17,-1.50,2.85,1.08,-16.65,-1.65,-44.55,25.9
2026/05/04 21:44:47.34,IMU,-225.10,-13.18,-979.49,0.37,-3.45,-2.27,-16.80,-1.80,-44.70,25.9
2026/05/04 21:44:47.44,IMU,-247.56,-11.23,-987.30,-0.83,-2.51,2.82,-16.05,-1.05,-43.20,25.8
2026/05/04 21:44:47.54,IMU,-228.03,-0.98,-998.54,3.15,-4.08,-3.44,-18.00,-2.25,-43.65,25.7
2026/05/04 21:44:47.65,IMU,-274.41,-30.76,-982.42,-2.43,1.29,-0.80,-16.65,-1.95,-44.55,25.9
2026/05/04 21:44:47.75,IMU,-226.56,-3.91,-983.40,-1.42,2.24,2.15,-17.25,-1.50,-45.00,25.9
2026/05/04 21:44:47.85,IMU,-231.45,-16.11,-967.77,-1.05,-0.27,1.08,-17.25,-1.80,-43.95,25.7
2026/05/04 21:44:47.96,IMU,-243.65,0.98,-986.82,-2.31,1.55,1.99,-16.05,-1.80,-44.70,25.7
2026/05/04 21:44:48.06,IMU,-240.72,3.42,-990.23,-0.03,-0.84,2.37,-16.05,-2.25,-45.45,25.8
2026/05/04 21:44:48.16,IMU,-242.19,-5.37,-994.63,0.29,-1.05,0.23,-17.40,-1.95,-44.10,25.7
2026/05/04 21:44:48.26,IMU,-235.84,-14.16,-1007.81,-2.71,-0.50,-3.70,-16.50,-1.80,-43.65,25.9
2026/05/04 21:44:48.36,IMU,-257.81,12.21,-966.31,0.60,1.12,0.49,-17.10,-0.45,-45.15,25.5
2026/05/04 21:44:48.46,IMU,-250.00,-12.21,-995.12,-2.41,-1.00,-2.25,-17.10,-2.40,-45.15,25.7
2026/05/04 21:44:48.56,IMU,-257.81,-0.98,-976.56,-0.79,-4.82,-0.95,-18.75,-5.25,-40.35,25.8
2026/05/04 21:44:48.66,IMU,-246.09,-6.84,-1006.35,-0.25,-0.83,0.03,-17.25,-1.05,-44.25,25.9
2026/05/04 21:44:48.76,IMU,-235.84,-10.74,-1010.25,2.80,-6.43,-1.94,-16.05,-0.75,-45.45,25.7
2026/05/04 21:44:48.86,IMU,-244.14,3.91,-1005.37,3.05,-9.37,3.55,-16.35,-1.95,-43.80,25.8
2026/05/04 21:44:48.96,IMU,-273.44,-35.16,-984.38,5.69,-9.05,2.79,-15.45,-2.55,-44.70,25.7
2026/05/04 21:44:49.06,IMU,-297.85,-48.34,-979.49,2.40,-7.18,-2.82,-15.45,-1.80,-43.65,25.9
2026/05/04 21:44:49.16,IMU,-298.34,-27.34,-995.61,-1.37,3.66,3.25,-15.75,-2.55,-44.70,25.9
2026/05/04 21:44:49.26,IMU,-290.53,-15.14,-963.38,0.66,6.05,3.29,-15.45,-1.80,-43.65,25.7
2026/05/04 21:44:49.36,IMU,-275.88,-11.72,-936.04,-0.70,0.09,1.79,-15.15,-1.95,-43.80,25.8
2026/05/04 21:44:49.46,IMU,-287.60,-10.74,-965.82,0.89,-5.87,-3.55,-14.10,-2.40,-43.35,25.9
2026/05/04 21:44:49.57,IMU,-266.60,-13.67,-982.42,-0.42,0.25,0.76,-18.30,-5.55,-40.05,25.9
2026/05/04 21:44:49.67,IMU,-275.88,-13.18,-981.93,0.31,-0.55,-0.25,-15.45,-0.30,-44.70,25.9
2026/05/04 21:44:49.77,IMU,-267.58,-17.58,-982.42,0.79,-0.37,-0.40,-16.05,-2.25,-44.25,25.9
2026/05/04 21:44:49.87,IMU,-295.90,-30.76,-966.31,3.89,-0.72,-0.37,-15.75,-1.05,-42.90,25.9
2026/05/04 21:44:49.97,IMU,-287.60,-24.41,-998.05,1.89,-0.21,0.18,-15.90,-2.40,-44.10,25.9
2026/05/04 21:44:50.07,IMU,-271.00,-13.18,-990.23,1.14,-1.14,-2.97,-15.15,-2.70,-43.80,25.7
2026/05/04 21:44:50.17,IMU,-298.83,-25.39,-964.84,2.49,-3.82,-4.90,-16.80,-1.80,-42.90,25.9
2026/05/04 21:44:50.27,IMU,-291.99,-13.18,-984.86,-0.63,-0.34,-2.63,-15.90,-1.95,-44.10,25.8
2026/05/04 21:44:50.37,IMU,-305.18,-19.04,-946.78,4.51,-0.08,-2.23,-14.10,-2.40,-43.35,25.7
2026/05/04 21:44:50.47,IMU,-288.09,-31.74,-987.79,1.15,-0.54,1.26,-14.40,-2.40,-43.80,26.0
2026/05/04 21:44:50.57,IMU,-289.55,-15.14,-996.09,-0.03,0.19,1.59,-14.40,-0.90,-43.05,26.1
2026/05/04 21:44:50.67,IMU,-293.46,-10.25,-978.03,-0.67,1.69,1.20,-15.15,-1.95,-44.55,25.9
2026/05/04 21:44:50.77,IMU,-307.13,-28.81,-958.98,2.72,0.99,3.76,-16.05,-1.80,-43.20,25.9
2026/05/04 21:44:50.87,IMU,-289.55,-23.44,-968.75,2.08,2.27,0.95,-14.70,-3.00,-43.95,25.8
2026/05/04 21:44:50.97,IMU,-294.92,-1.95,-953.61,-0.42,-0.74,1.86,-15.15,-0.90,-43.80,25.9
2026/05/04 21:44:51.07,IMU,-274.90,-17.09,-968.26,0.60,-1.46,3.77,-15.15,-3.15,-44.55,26.1
2026/05/04 21:44:51.17,IMU,-274.90,-16.60,-963.87,1.11,-0.84,0.12,-15.45,-3.30,-43.20,25.9
2026/05/04 21:44:51.27,IMU,-277.34,-23.93,-979.98,-0.71,-0.95,-0.31,-14.70,-2.25,-44.25,25.8
2026/05/04 21:44:51.37,IMU,-280.27,-27.83,-980.96,-2.25,5.37,2.08,-14.85,-1.65,-43.05,25.9
2026/05/04 21:44:51.47,IMU,-285.64,-23.44,-963.38,-0.99,-2.51,-0.73,-14.85,-1.20,-43.80,25.9
2026/05/04 21:44:51.57,IMU,-284.18,-28.32,-976.56,-0.22,1.47,-1.92,-15.75,-1.05,-42.15,26.0
2026/05/04 21:44:51.67,IMU,-268.07,-7.32,-981.93,-0.73,0.10,-3.02,-15.00,-3.00,-43.65,25.9
2026/05/04 21:44:51.77,IMU,-304.20,-20.51,-962.89,0.67,0.92,2.49,-15.45,-3.30,-43.65,25.9
2026/05/04 21:44:51.87,IMU,-315.92,-21.97,-897.95,0.45,2.02,0.60,-15.00,-2.25,-43.95,25.9
2026/05/04 21:44:51.98,IMU,-281.74,-27.83,-994.14,-1.25,-0.60,2.94,-13.35,-1.65,-42.75,25.9
2026/05/04 21:44:52.09,IMU,-284.67,-26.37,-984.86,0.14,-1.45,-3.35,-15.75,-1.80,-45.00,25.7
2026/05/04 21:44:52.19,IMU,-262.21,-22.46,-977.05,0.15,2.29,2.70,-14.40,-1.65,-44.55,26.1
2026/05/04 21:44:52.29,IMU,-289.06,-13.67,-982.91,1.48,1.96,0.45,-14.40,-0.90,-43.35,26.0
2026/05/04 21:44:52.39,IMU,-286.62,-22.46,-982.42,1.01,0.21,1.02,-16.50,-2.55,-45.00,25.9
2026/05/04 21:44:52.49,IMU,-294.43,-20.51,-984.38,-0.25,2.18,3.31,-14.40,-1.95,-42.75,25.9
2026/05/04 21:44:52.59,IMU,-290.04,-21.97,-964.84,0.67,-2.74,2.16,-14.70,-3.00,-44.25,25.9
2026/05/04 21:44:52.69,IMU,-290.04,-20.02,-970.70,0.39,-0.65,1.05,-14.40,-2.40,-45.15,25.9
2026/05/04 21:44:52.79,IMU,-274.90,-21.97,-974.61,0.43,2.60,3.37,-14.70,-1.50,-44.25,25.9
2026/05/04 21:44:52.89,IMU,-297.36,-21.00,-955.57,-2.00,-0.53,3.04,-18.75,-5.25,-38.25,25.9
2026/05/04 21:44:52.99,IMU,-284.67,-15.14,-976.56,-0.86,-0.05,0.75,-14.85,-3.60,-44.85,25.7
2026/05/04 21:44:53.09,IMU,-272.46,-29.30,-969.73,-0.27,1.23,1.92,-14.10,-2.40,-44.85,26.0
2026/05/04 21:44:53.19,IMU,-276.86,-33.69,-985.35,-0.12,0.92,3.34,-15.75,-3.75,-44.25,25.7
2026/05/04 21:44:53.29,IMU,-304.20,-22.95,-974.12,0.90,-0.75,-3.02,-15.15,-2.70,-42.75,25.6
2026/05/04 21:44:53.39,IMU,-281.74,-19.04,-967.29,-0.31,-0.50,0.80,-15.00,-2.55,-45.00,25.9
2026/05/04 21:44:53.49,IMU,-279.79,-17.58,-970.70,1.15,0.01,-2.96,-13.65,-2.70,-43.80,26.0
2026/05/04 21:44:53.59,IMU,-290.53,-21.00,-978.52,0.03,2.51,1.47,-14.40,-3.15,-43.35,25.8
2026/05/04 21:44:53.69,IMU,-285.16,-12.70,-976.56,-0.44,1.60,2.12,-15.90,-1.65,-44.10,25.9
2026/05/04 21:44:53.79,IMU,-276.86,-19.53,-1000.98,-1.19,-2.43,0.79,-16.35,-1.95,-44.85,25.7
2026/05/04 21:44:53.91,IMU,-282.23,-15.63,-964.84,0.50,4.44,0.02,-14.85,-0.90,-44.85,26.1
2026/05/04 21:44:54.01,IMU,-275.39,-17.58,-981.45,1.27,-1.21,-1.82,-15.00,-3.00,-43.65,25.9
2026/05/04 21:44:54.11,IMU,-270.02,-13.18,-972.17,-0.41,-0.54,-2.04,-15.45,-1.80,-44.25,25.9
2026/05/04 21:44:54.21,IMU,-295.90,-17.09,-977.54,2.18,2.60,-0.82,-15.45,-1.50,-44.25,25.9
2026/05/04 21:44:54.31,IMU,-275.39,-6.35,-995.61,1.02,0.76,-3.21,-15.00,-2.55,-43.65,26.1
2026/05/04 21:44:54.41,IMU,-284.67,-6.84,-978.03,-0.36,-0.45,-0.16,-13.95,-1.80,-44.70,25.9
2026/05/04 21:44:54.51,IMU,-280.27,-21.97,-975.10,-0.13,-1.11,-0.26,-15.45,-1.05,-43.20,26.1
2026/05/04 21:44:54.61,IMU,-279.30,-18.55,-965.82,2.70,-1.18,-1.92,-15.75,-3.00,-44.25,25.9
2026/05/04 21:44:54.71,IMU,-299.32,-21.00,-956.05,0.04,-0.21,-2.13,-13.65,-1.95,-45.60,26.3
2026/05/04 21:44:54.81,IMU,-278.32,-26.37,-986.82,-1.56,-0.47,0.34,-16.05,-1.50,-44.70,25.9
2026/05/04 21:44:54.91,IMU,-284.18,-15.63,-975.10,1.47,-0.37,3.76,-16.05,-3.00,-44.25,26.2
2026/05/04 21:44:55.01,IMU,-292.97,0.49,-972.66,-0.95,-0.95,-1.67,-15.90,-1.95,-44.85,26.3
2026/05/04 21:44:55.11,IMU,-311.04,-26.86,-975.10,0.66,2.22,0.88,-13.95,-3.30,-45.45,25.8
2026/05/04 21:44:55.21,IMU,-283.69,-9.77,-964.36,-0.65,1.56,1.60,-15.45,-2.25,-46.20,25.9
2026/05/04 21:44:55.31,IMU,-284.18,-21.97,-985.84,1.27,-0.24,0.85,-16.50,-2.55,-44.70,26.1
2026/05/04 21:44:55.41,IMU,-280.76,-5.86,-979.49,-1.55,1.63,-0.86,-14.85,-3.15,-44.85,25.9
2026/05/04 21:44:55.51,IMU,-285.16,-7.81,-958.50,1.26,4.18,1.24,-15.00,-2.25,-44.25,26.1
2026/05/04 21:44:55.61,IMU,-303.71,-25.39,-954.10,3.34,-2.27,-1.05,-15.90,-2.40,-44.85,26.1
2026/05/04 21:44:55.71,IMU,-291.50,-18.55,-973.63,-0.15,-2.00,-1.37,-16.35,-2.70,-45.60,26.1
2026/05/04 21:44:55.81,IMU,-276.86,-29.79,-992.19,-0.28,1.82,1.55,-15.15,-3.60,-43.35,26.1
2026/05/04 21:44:55.91,IMU,-295.90,-20.02,-961.43,-0.16,0.08,-1.90,-18.00,-2.25,-44.70,26.1
2026/05/04 21:44:56.01,IMU,-272.46,-3.91,-976.56,1.87,-1.63,-1.95,-13.65,-1.65,-44.85,26.1
2026/05/04 21:44:56.11,IMU,-279.30,-12.21,-992.19,-1.21,2.88,2.56,-14.40,-1.20,-44.55,26.0
2026/05/04 21:44:56.21,IMU,-291.99,-11.23,-986.33,1.11,0.21,-0.37,-14.85,-1.20,-43.35,25.9
2026/05/04 21:44:56.31,IMU,-283.69,-16.60,-961.43,-0.21,1.82,3.30,-15.00,-1.80,-44.25,25.9
2026/05/04 21:44:56.41,IMU,-296.39,-19.53,-985.84,0.61,-2.46,-3.06,-14.40,-1.65,-44.55,26.3
2026/05/04 21:44:56.51,IMU,-284.18,-5.86,-975.59,-0.71,0.69,0.21,-14.40,-2.40,-44.10,26.1
2026/05/04 21:44:56.61,IMU,-285.64,-18.55,-980.47,-1.11,0.47,0.06,-14.85,-2.70,-44.10,26.1
2026/05/04 21:44:56.71,IMU,-287.60,-21.00,-983.89,-0.57,1.98,-1.66,-17.25,-3.75,-41.40,26.4
2026/05/04 21:44:56.81,IMU,-298.83,-9.77,-967.29,-0.63,0.07,0.04,-15.60,-2.40,-45.15,26.1
2026/05/04 21:44:56.91,IMU,-288.57,-18.07,-967.29,-1.20,-2.15,-1.42,-15.45,-2.25,-43.95,26.1
2026/05/04 21:44:57.01,IMU,-280.76,-13.18,-970.21,0.75,2.01,0.71,-18.30,-5.25,-40.35,26.1
2026/05/04 21:44:57.11,IMU,-275.88,-13.67,-979.49,0.53,0.69,-0.17,-14.10,-2.70,-45.15,26.1
2026/05/04 21:44:57.21,IMU,-294.92,-9.77,-967.77,-1.31,1.60,1.50,-15.00,-1.80,-45.00,25.9
2026/05/04 21:44:57.31,IMU,-267.09,-16.11,-975.59,1.66,-0.87,-0.76,-15.60,-2.70,-44.55,26.0
2026/05/04 21:44:57.41,IMU,-290.53,-1.46,-971.68,1.09,2.98,0.26,-14.10,-2.40,-44.85,26.2
2026/05/04 21:44:57.51,IMU,-283.20,-22.95,-979.98,1.60,0.95,-0.06,-14.70,-1.80,-44.25,25.8
2026/05/04 21:44:57.61,IMU,-283.69,-17.58,-977.05,2.08,-0.40,-1.34,-14.25,-2.55,-45.45,26.1
2026/05/04 21:44:57.72,IMU,-267.58,-11.23,-991.21,2.12,2.50,-0.27,-18.00,-4.05,-41.10,26.4
2026/05/04 21:44:57.82,IMU,-302.25,-28.81,-982.42,1.24,0.13,2.02,-14.70,-2.55,-43.95,26.1
2026/05/04 21:44:57.92,IMU,-291.02,-19.04,-985.84,-0.27,-0.08,-2.39,-14.85,-1.65,-45.60,25.9
2026/05/04 21:44:58.03,IMU,-268.07,-21.97,-879.39,-3.63,-1.30,6.33,-14.25,-1.50,-44.25,26.1
2026/05/04 21:44:58.13,IMU,-276.37,-18.07,-990.72,-3.47,0.66,-0.56,-14.40,-0.90,-43.05,26.1
2026/05/04 21:44:58.23,IMU,-280.76,-35.64,-1002.44,-0.14,0.64,2.03,-14.85,-2.40,-44.55,25.9
2026/05/04 21:44:58.33,IMU,-260.74,-26.37,-977.05,5.85,13.40,-2.27,-15.75,-3.30,-45.75,26.2
2026/05/04 21:44:58.43,IMU,-274.41,-51.76,-940.43,12.39,16.54,-8.03,-15.90,-2.70,-44.85,26.0
2026/05/04 21:44:58.53,IMU,-187.99,-66.41,-993.65,21.57,40.12,-10.35,-15.90,-1.95,-42.75,26.1
2026/05/04 21:44:58.63,IMU,-122.07,-83.98,-1004.88,7.68,7.82,-15.08,-19.65,-5.10,-43.05,26.2
2026/05/04 21:44:58.74,IMU,-86.91,-97.66,-947.27,-4.08,4.51,-2.61,-25.50,-6.60,-38.40,26.1
2026/05/04 21:44:58.84,IMU,-61.04,-77.15,-1024.90,18.58,-1.21,-0.72,-22.35,-4.50,-43.95,26.1
2026/05/04 21:44:58.94,IMU,-150.39,-131.84,-1006.35,23.94,-17.95,1.69,-20.70,-6.15,-43.80,25.9
2026/05/04 21:44:59.04,IMU,-180.18,-161.62,-1044.43,3.56,-11.38,4.27,-20.55,-6.00,-42.15,25.9
2026/05/04 21:44:59.14,IMU,-176.27,-139.16,-979.98,9.21,-8.12,1.11,-19.65,-4.65,-41.25,26.1
2026/05/04 21:44:59.24,IMU,-142.09,-165.04,-999.51,6.63,-5.78,-1.58,-20.10,-6.75,-42.45,26.2
2026/05/04 21:44:59.34,IMU,-250.00,-7.32,-1026.86,24.28,-60.28,-25.04,-19.50,-6.45,-41.40,25.9
2026/05/04 21:44:59.44,IMU,-297.85,-217.29,-934.57,8.94,-4.61,3.86,-17.55,-6.45,-41.10,26.1
2026/05/04 21:44:59.54,IMU,-206.54,-185.06,-951.66,-0.50,0.68,2.03,-17.40,-5.40,-39.75,26.0
2026/05/04 21:44:59.64,IMU,-198.24,-184.57,-936.52,-4.44,-10.13,-1.83,-19.50,-6.00,-40.35,26.1
2026/05/04 21:44:59.74,IMU,-227.54,-155.76,-1002.44,-6.79,5.97,4.08,-17.55,-7.20,-42.15,26.1
2026/05/04 21:44:59.84,IMU,-216.31,-149.41,-1000.00,-3.44,4.02,0.18,-19.20,-5.85,-42.75,26.1
2026/05/04 21:44:59.94,IMU,-201.17,-149.41,-978.03,-4.21,4.40,0.31,-18.15,-5.85,-42.30,26.1
2026/05/04 21:45:00.04,IMU,-150.88,-143.07,-1005.86,-5.64,6.37,8.60,-18.90,-5.40,-42.75,26.1
2026/05/04 21:45:00.14,IMU,-193.36,-112.30,-996.09,-1.19,-2.87,0.38,-18.00,-4.05,-42.90,26.1
2026/05/04 21:45:00.24,IMU,-214.84,-140.63,-986.33,0.49,2.65,1.89,-18.30,-4.05,-42.90,26.2
2026/05/04 21:45:00.34,IMU,-188.96,-134.28,-996.58,-0.68,3.27,-2.47,-18.45,-5.85,-43.05,25.8
2026/05/04 21:45:00.44,IMU,-195.80,-116.70,-965.33,-0.29,7.71,0.23,-18.75,-5.55,-42.90,26.3
2026/05/04 21:45:00.54,IMU,-183.11,-140.63,-1002.44,-2.83,7.82,-0.89,-19.05,-4.80,-42.15,25.9
2026/05/04 21:45:00.64,IMU,-166.02,-125.00,-1018.55,3.72,-3.56,3.67,-19.20,-4.35,-41.55,25.7
2026/05/04 21:45:00.74,IMU,-210.45,-154.30,-1022.46,5.08,-6.11,-4.18,-17.70,-6.15,-41.55,26.1
2026/05/04 21:45:00.85,IMU,-187.01,-150.88,-988.28,-1.80,2.83,0.83,-17.40,-6.90,-40.95,25.9
2026/05/04 21:45:00.95,IMU,-193.36,-165.04,-983.40,1.22,-0.08,-3.98,-18.75,-6.00,-42.15,25.9
2026/05/04 21:45:01.05,IMU,-189.45,-166.02,-975.10,0.39,5.90,0.48,-18.45,-6.60,-41.25,26.1
2026/05/04 21:45:01.15,IMU,-137.21,-160.16,-1012.21,-2.60,7.11,0.64,-19.50,-5.25,-41.85,25.9
2026/05/04 21:45:01.25,IMU,-215.82,-150.88,-1009.77,4.82,0.80,0.24,-18.30,-5.25,-41.40,25.7
2026/05/04 21:45:01.35,IMU,-194.82,-164.06,-978.52,1.63,-1.43,3.47,-18.30,-6.45,-40.65,26.0
2026/05/04 21:45:01.45,IMU,-208.50,-157.71,-967.29,6.94,-13.41,0.20,-19.80,-5.25,-41.85,25.9
2026/05/04 21:45:01.55,IMU,-244.63,-158.69,-964.84,0.89,-3.89,-2.21,-18.30,-6.75,-42.15,26.2
2026/05/04 21:45:01.65,IMU,-232.42,-159.18,-971.19,-0.73,2.41,0.06,-19.65,-6.60,-41.25,26.1
2026/05/04 21:45:01.75,IMU,-185.06,-115.72,-998.54,-6.68,6.27,0.19,-18.90,-6.15,-40.95,25.9
2026/05/04 21:45:01.85,IMU,-216.31,-160.64,-980.96,2.25,0.02,4.44,-17.55,-6.00,-42.15,25.9
2026/05/04 21:45:01.95,IMU,-182.13,-155.27,-967.77,-0.82,7.44,3.82,-18.90,-6.60,-40.50,26.2
2026/05/04 21:45:02.05,IMU,-219.73,-166.50,-1000.98,9.24,-5.65,-12.57,-18.45,-5.40,-42.30,26.0
2026/05/04 21:45:02.15,IMU,-217.29,-173.83,-982.91,2.42,-0.60,-2.05,-17.40,-6.60,-41.25,26.1
2026/05/04 21:45:02.25,IMU,-210.94,-175.78,-1006.35,0.24,-1.38,0.46,-17.70,-6.90,-41.25,26.1
2026/05/04 21:45:02.35,IMU,-232.91,-172.36,-987.30,8.50,-3.85,-3.20,-18.45,-7.65,-40.20,26.0
2026/05/04 21:45:02.45,IMU,-246.58,-193.85,-961.43,2.18,0.10,-0.50,-17.70,-6.90,-39.75,26.1
2026/05/04 21:45:02.55,IMU,-237.30,-220.21,-939.45,-6.85,12.39,2.46,-19.50,-7.20,-39.60,26.3
2026/05/04 21:45:02.65,IMU,-217.29,-163.09,-1004.88,-45.23,37.84,-6.23,-20.40,-5.40,-42.75,25.8
2026/05/04 21:45:02.75,IMU,-149.41,-92.77,-1066.89,-27.07,37.08,-14.49,-22.50,-4.65,-43.05,26.0
2026/05/04 21:45:02.85,IMU,-19.04,-46.39,-1045.41,5.98,6.49,-1.19,-24.90,-3.00,-43.20,25.9
2026/05/04 21:45:02.95,IMU,-64.45,-91.31,-960.45,9.20,0.84,2.92,-24.00,-2.70,-43.35,26.3
2026/05/04 21:45:03.05,IMU,-28.81,-58.11,-1000.00,0.27,6.36,-0.25,-24.90,-4.05,-44.70,26.1
2026/05/04 21:45:03.15,IMU,-50.29,-62.50,-1029.30,4.62,-3.67,4.40,-25.65,-4.05,-43.95,26.1
2026/05/04 21:45:03.25,IMU,-108.40,-92.77,-1018.55,5.84,-3.49,2.18,-24.60,-4.50,-43.95,26.1
2026/05/04 21:45:03.35,IMU,-82.03,-110.84,-1003.91,2.74,1.43,3.34,-24.90,-3.75,-42.45,26.0
2026/05/04 21:45:03.45,IMU,-50.78,-106.45,-998.05,4.88,3.17,-2.66,-25.50,-3.15,-43.05,26.3
2026/05/04 21:45:03.55,IMU,-64.45,-110.84,-1018.55,6.21,0.92,2.14,-25.50,-3.90,-42.30,26.1
2026/05/04 21:45:03.65,IMU,-26.37,-108.40,-1019.04,3.23,1.98,0.69,-25.20,-3.60,-42.75,26.1
2026/05/04 21:45:03.75,IMU,-19.53,-105.47,-1030.27,2.76,-0.14,2.96,-25.35,-4.50,-40.35,26.0
2026/05/04 21:45:03.85,IMU,-33.69,-129.39,-982.91,3.66,3.48,5.65,-24.90,-6.00,-42.15,26.3
2026/05/04 21:45:03.97,IMU,-14.16,-125.49,-1031.25,1.82,6.06,2.74,-24.90,-3.75,-42.15,25.9
2026/05/04 21:45:04.06,IMU,-26.86,-116.70,-994.14,1.94,-0.59,7.37,-24.75,-4.35,-43.05,26.2
2026/05/04 21:45:04.17,IMU,-59.57,-140.63,-981.45,2.19,-1.49,4.72,-23.70,-5.85,-40.95,26.1
2026/05/04 21:45:04.27,IMU,-41.02,-138.18,-1004.39,-9.51,-3.40,1.40,-24.00,-5.85,-42.00,26.2
2026/05/04 21:45:04.37,IMU,-53.71,-152.34,-1025.88,-3.95,-4.18,1.78,-23.25,-5.40,-42.30,26.0
2026/05/04 21:45:04.47,IMU,-71.78,-145.02,-1018.07,-0.92,-2.04,0.65,-22.95,-5.10,-42.30,26.1
2026/05/04 21:45:04.57,IMU,-74.22,-139.65,-979.00,8.30,-7.28,0.10,-21.60,-6.75,-42.45,26.2
2026/05/04 21:45:04.67,IMU,-68.85,-155.27,-986.33,1.33,3.85,-0.53,-23.55,-6.45,-41.10,26.1
2026/05/04 21:45:04.77,IMU,-77.15,-161.62,-986.82,-0.40,-2.26,-1.05,-23.25,-6.15,-43.35,26.4
2026/05/04 21:45:04.87,IMU,-66.41,-146.48,-996.09,-1.63,0.55,1.52,-25.20,-6.60,-38.70,26.0
2026/05/04 21:45:04.97,IMU,-75.68,-145.02,-991.21,-2.59,2.69,0.88,-22.05,-6.00,-41.10,26.3
2026/05/04 21:45:05.07,IMU,-61.04,-137.21,-1009.77,-1.53,6.11,3.63,-22.35,-6.75,-41.85,26.1
2026/05/04 21:45:05.17,IMU,-88.87,-153.32,-980.96,-2.45,1.25,-0.62,-21.75,-6.90,-41.55,26.3
2026/05/04 21:45:05.27,IMU,-68.85,-133.79,-1022.46,-4.78,2.56,0.67,-22.35,-4.80,-40.35,26.0
2026/05/04 21:45:05.37,IMU,-60.55,-140.63,-1014.16,0.95,-2.32,0.76,-22.80,-5.55,-41.85,26.4
2026/05/04 21:45:05.47,IMU,-48.83,-141.11,-1016.11,0.21,-2.46,-0.38,-23.10,-5.55,-41.10,25.9
2026/05/04 21:45:05.57,IMU,-87.89,-153.32,-1004.88,1.39,1.79,1.44,-22.95,-5.10,-41.55,26.2
2026/05/04 21:45:05.67,IMU,-90.33,-162.60,-1005.86,-3.73,0.15,-0.77,-22.05,-5.25,-41.85,26.3
2026/05/04 21:45:05.77,IMU,-86.43,-149.90,-1012.21,-4.05,-2.77,-4.43,-21.75,-5.40,-40.95,26.4
2026/05/04 21:45:05.88,IMU,-69.82,-144.04,-1009.28,2.76,-3.29,-3.05,-21.75,-5.10,-42.30,26.2
2026/05/04 21:45:05.98,IMU,-75.20,-146.48,-988.77,-2.47,3.10,2.91,-23.10,-4.50,-40.65,26.4
2026/05/04 21:45:06.08,IMU,-70.31,-148.44,-1006.84,0.43,-0.25,-0.85,-23.10,-5.55,-42.45,26.4
2026/05/04 21:45:06.18,IMU,-89.84,-163.57,-1019.53,-1.12,1.59,2.45,-23.10,-5.55,-41.40,26.1
2026/05/04 21:45:06.28,IMU,-79.10,-141.60,-1011.23,2.34,2.51,0.05,-22.50,-5.40,-42.00,26.4
2026/05/04 21:45:06.38,IMU,-79.59,-147.46,-985.84,3.65,-1.02,-0.53,-22.05,-6.75,-40.05,26.2
2026/05/04 21:45:06.48,IMU,-79.10,-157.23,-994.63,-1.79,-1.26,0.86,-21.60,-6.45,-41.40,26.3
2026/05/04 21:45:06.58,IMU,-85.94,-144.53,-960.94,-1.31,3.27,2.31,-22.20,-6.15,-41.55,26.3
2026/05/04 21:45:06.68,IMU,-81.54,-145.51,-1016.11,1.73,0.09,-1.71,-24.15,-6.45,-40.65,26.0
2026/05/04 21:45:06.78,IMU,-74.71,-158.69,-993.16,3.58,4.07,0.52,-23.70,-4.35,-41.55,26.4
2026/05/04 21:45:06.88,IMU,-50.78,-143.07,-986.82,-10.25,6.91,-0.24,-23.55,-5.25,-42.90,26.3
2026/05/04 21:45:06.98,IMU,-18.55,-130.86,-998.54,-28.95,25.10,-2.27,-24.75,-4.65,-42.00,26.1
2026/05/04 21:45:07.08,IMU,35.16,-74.71,-1026.37,-16.47,16.33,-6.53,-25.50,-3.90,-42.30,26.3
2026/05/04 21:45:07.18,IMU,31.25,-83.50,-1025.88,-14.69,16.80,-4.44,-27.15,-2.25,-42.45,26.3
2026/05/04 21:45:07.28,IMU,62.50,-46.88,-1072.27,-2.61,1.40,-1.92,-25.80,-1.65,-43.35,25.9
2026/05/04 21:45:07.38,IMU,30.76,-48.83,-1029.79,4.27,-4.85,5.66,-24.75,-3.15,-43.35,26.1
2026/05/04 21:45:07.48,IMU,44.92,-97.17,-1055.66,8.71,-5.83,1.82,-26.40,-3.00,-44.25,26.4
2026/05/04 21:45:07.58,IMU,-1.95,-56.64,-1046.88,1.43,1.60,-1.14,-25.65,-2.55,-43.20,25.9
2026/05/04 21:45:07.68,IMU,6.35,-60.06,-1030.27,-3.23,2.76,-0.53,-25.65,-2.25,-43.20,26.3
2026/05/04 21:45:07.78,IMU,2.93,-78.12,-1014.65,-2.63,-2.23,1.56,-25.35,-3.75,-43.65,26.1
2026/05/04 21:45:07.88,IMU,-1.95,-88.87,-1003.42,3.46,-0.01,5.69,-25.35,-3.75,-42.90,26.1
2026/05/04 21:45:07.98,IMU,2.93,-56.15,-995.12,-3.06,1.52,1.79,-24.75,-3.90,-44.55,26.2
2026/05/04 21:45:08.09,IMU,-0.49,-72.27,-999.02,1.22,2.34,-1.32,-24.15,-1.50,-42.90,26.3
2026/05/04 21:45:08.19,IMU,18.55,-71.29,-1031.74,-2.38,-3.56,1.21,-23.85,-3.00,-43.20,26.2
2026/05/04 21:45:08.29,IMU,0.49,-60.55,-993.16,-0.50,-8.40,2.81,-24.15,-3.75,-43.95,26.4
2026/05/04 21:45:08.39,IMU,-7.81,-73.24,-990.23,2.31,-2.00,-0.70,-24.45,-3.90,-44.10,26.3
2026/05/04 21:45:08.49,IMU,-2.93,-87.40,-1019.53,0.53,-1.60,-2.18,-24.75,-3.60,-44.10,26.0
2026/05/04 21:45:08.59,IMU,-47.85,-79.10,-997.07,0.69,-3.05,1.73,-24.60,-3.00,-43.20,26.1
2026/05/04 21:45:08.69,IMU,-4.88,-66.89,-1005.37,-2.55,0.11,-2.12,-25.80,-1.95,-43.35,26.1
2026/05/04 21:45:08.79,IMU,-19.04,-59.08,-1008.30,-3.62,0.11,0.10,-24.15,-3.30,-43.20,26.2
2026/05/04 21:45:08.89,IMU,-45.90,-75.68,-966.80,1.57,-0.50,-1.75,-24.90,-3.30,-43.65,26.1
2026/05/04 21:45:08.99,IMU,-14.65,-30.76,-1009.77,-9.24,1.89,-0.01,-25.35,-3.00,-43.95,26.0
2026/05/04 21:45:09.09,IMU,-10.25,-42.97,-1013.67,-1.92,1.85,-2.07,-24.45,-1.20,-43.80,26.4
2026/05/04 21:45:09.19,IMU,-0.98,-13.18,-1048.34,-4.32,1.30,-3.83,-24.60,-3.30,-43.20,26.1
2026/05/04 21:45:09.29,IMU,-27.83,-35.64,-1035.16,6.17,0.05,-0.34,-24.75,-1.65,-43.35,26.4
2026/05/04 21:45:09.39,IMU,0.98,-36.13,-1022.46,5.67,0.15,1.15,-25.50,-0.45,-45.15,26.1
2026/05/04 21:45:09.49,IMU,1.46,-33.20,-1016.11,-3.39,-2.04,-3.93,-24.45,-2.70,-44.10,26.3
2026/05/04 21:45:09.59,IMU,0.98,-37.60,-1008.79,1.67,3.92,0.17,-24.90,-3.00,-43.65,25.9
2026/05/04 21:45:09.69,IMU,13.18,-29.30,-1027.83,-1.31,2.40,3.19,-24.00,-1.95,-43.35,26.3
2026/05/04 21:45:09.79,IMU,11.72,-44.43,-1009.77,4.35,1.76,4.13,-24.60,-1.80,-45.00,26.2
2026/05/04 21:45:09.91,IMU,-41.50,-88.87,-1021.00,5.62,-6.62,-2.13,-24.15,-3.00,-43.20,25.9
2026/05/04 21:45:10.01,IMU,-22.95,-61.04,-1030.76,4.89,-6.11,-4.15,-24.60,-3.00,-43.20,26.2
2026/05/04 21:45:10.11,IMU,-19.04,-64.94,-1007.81,9.82,-9.41,-2.15,-23.25,-3.15,-43.05,26.2
2026/05/04 21:45:10.21,IMU,-65.43,-79.59,-993.65,0.21,-0.66,0.69,-24.75,-3.90,-42.75,26.3
2026/05/04 21:45:10.31,IMU,-66.89,-91.80,-1021.48,-0.68,2.13,-0.54,-23.10,-3.30,-43.95,26.1
2026/05/04 21:45:10.41,IMU,-43.46,-92.77,-1025.39,2.25,3.38,1.44,-24.00,-3.90,-43.80,26.2
2026/05/04 21:45:10.51,IMU,-42.48,-82.03,-1025.88,-4.52,1.98,-4.58,-24.15,-2.55,-42.45,26.3
2026/05/04 21:45:10.61,IMU,-67.38,-87.40,-1010.74,-0.69,-0.46,-1.62,-23.70,-3.90,-44.55,26.1
2026/05/04 21:45:10.71,IMU,-22.46,-60.06,-1002.93,-6.98,-0.21,-4.34,-25.65,-4.80,-41.10,26.3
2026/05/04 21:45:10.81,IMU,-60.55,-90.82,-1032.71,2.30,-4.59,1.69,-25.35,-3.30,-42.15,25.9
2026/05/04 21:45:10.91,IMU,-49.32,-60.06,-1020.51,-2.37,0.19,1.32,-26.10,-4.50,-43.20,26.2
2026/05/04 21:45:11.01,IMU,-29.30,-48.34,-1052.25,0.18,-1.45,-4.94,-24.90,-4.50,-42.45,25.9
2026/05/04 21:45:11.11,IMU,-63.48,-111.33,-1050.29,49.68,-37.17,-1.74,-22.80,-5.25,-41.40,26.1
2026/05/04 21:45:11.21,IMU,-56.15,-92.29,-954.10,14.21,-8.64,3.50,-22.35,-5.55,-40.65,26.3
2026/05/04 21:45:11.31,IMU,-124.51,-145.02,-997.07,-14.29,13.79,0.52,-23.55,-5.55,-41.10,26.0
2026/05/04 21:45:11.41,IMU,-70.80,-96.68,-1027.83,1.34,2.14,3.05,-22.50,-4.65,-42.00,26.2
2026/05/04 21:45:11.51,IMU,-87.89,-132.32,-996.09,-3.95,2.26,-1.10,-23.70,-3.90,-42.30,26.1
2026/05/04 21:45:11.61,IMU,-61.52,-119.14,-1009.77,-2.05,0.66,-3.15,-25.20,-3.60,-42.75,25.8
2026/05/04 21:45:11.71,IMU,-54.20,-106.93,-991.70,1.05,4.38,2.47,-22.80,-4.80,-42.90,25.9
2026/05/04 21:45:11.81,IMU,-72.75,-116.21,-994.63,2.89,0.47,1.13,-23.25,-4.65,-41.55,26.3
2026/05/04 21:45:11.91,IMU,-91.80,-102.05,-1008.30,-0.40,-0.70,-3.40,-23.55,-4.05,-41.10,26.2
2026/05/04 21:45:12.01,IMU,-44.92,-114.75,-1035.16,1.58,1.44,0.89,-26.10,-5.55,-39.30,26.3
2026/05/04 21:45:12.11,IMU,-62.99,-110.35,-1019.53,-3.77,1.82,-2.81,-22.95,-4.65,-41.55,26.1
2026/05/04 21:45:12.21,IMU,-64.94,-109.37,-1020.02,1.52,2.36,-1.11,-23.25,-3.90,-41.55,25.9
2026/05/04 21:45:12.32,IMU,-77.64,-102.05,-1043.95,-6.19,1.83,0.10,-23.55,-4.80,-42.90,26.2
2026/05/04 21:45:12.42,IMU,-80.08,-62.01,-1000.98,-15.33,8.83,-0.30,-23.85,-2.55,-44.25,26.2
2026/05/04 21:45:12.52,IMU,-65.92,-61.04,-1029.79,-8.24,1.15,-0.72,-24.45,-4.65,-44.10,25.9
2026/05/04 21:45:12.62,IMU,-58.11,-61.52,-1038.09,2.31,-1.44,1.16,-24.45,-1.20,-44.55,25.9
2026/05/04 21:45:12.72,IMU,-52.25,-64.94,-1033.69,1.35,-0.02,0.40,-24.45,-3.15,-42.30,26.1
2026/05/04 21:45:12.82,IMU,-60.55,-62.01,-1002.93,3.04,-2.02,2.40,-24.00,-1.65,-42.30,25.9
2026/05/04 21:45:12.92,IMU,-55.66,-74.22,-1037.60,-3.35,0.01,-1.11,-23.70,-3.15,-43.35,26.2
2026/05/04 21:45:13.02,IMU,-55.18,-78.61,-1031.25,2.13,-3.16,-3.18,-26.85,-6.45,-37.80,26.3
2026/05/04 21:45:13.12,IMU,-92.77,-63.48,-1000.98,4.24,-7.19,-0.49,-24.90,-4.05,-42.15,25.9
2026/05/04 21:45:13.22,IMU,-74.71,-60.55,-988.28,-0.24,4.70,-1.76,-24.90,-3.00,-42.45,26.1
2026/05/04 21:45:13.32,IMU,-65.92,-73.73,-1023.44,1.12,2.78,-2.09,-24.90,-3.30,-42.90,26.0
2026/05/04 21:45:13.42,IMU,-73.24,-73.73,-991.21,-1.04,-1.15,0.11,-24.15,-3.00,-42.45,26.1
2026/05/04 21:45:13.52,IMU,-57.13,-74.22,-1014.65,0.92,2.11,0.73,-24.15,-2.55,-41.40,26.2
2026/05/04 21:45:13.62,IMU,-49.80,-53.22,-1012.70,1.63,-0.09,0.04,-23.85,-3.30,-42.15,25.9
2026/05/04 21:45:13.72,IMU,-43.46,-62.50,-1020.02,1.30,-2.15,1.76,-24.60,-1.80,-42.45,26.1
2026/05/04 21:45:13.82,IMU,-76.17,-60.06,-1003.42,2.78,-1.91,0.99,-24.60,-2.55,-41.10,26.4
2026/05/04 21:45:13.92,IMU,-87.89,-55.66,-1022.46,1.27,-0.19,-2.31,-23.25,-3.15,-42.75,26.4
2026/05/04 21:45:14.02,IMU,-86.43,-75.68,-1022.46,1.36,0.33,-0.88,-23.85,-4.50,-42.15,26.1
2026/05/04 21:45:14.12,IMU,-69.82,-91.80,-1024.90,-1.17,3.66,-3.24,-23.25,-3.60,-43.05,26.2
2026/05/04 21:45:14.22,IMU,-77.64,-69.82,-1008.30,0.34,2.18,2.53,-23.25,-2.70,-42.00,26.3
2026/05/04 21:45:14.32,IMU,-54.20,-73.73,-1019.04,-1.52,2.34,2.57,-23.70,-3.60,-42.75,26.4
2026/05/04 21:45:14.42,IMU,-59.08,-80.57,-1001.95,-3.50,0.54,-2.17,-24.75,-5.10,-42.75,26.1
2026/05/04 21:45:14.52,IMU,-72.27,-60.06,-994.14,2.02,-2.81,0.30,-23.70,-2.40,-40.95,26.3
2026/05/04 21:45:14.62,IMU,-95.21,-78.12,-986.82,-1.16,-0.99,-2.15,-23.70,-3.60,-40.95,26.0
2026/05/04 21:45:14.72,IMU,-77.15,-76.17,-1007.81,-2.44,2.16,0.69,-24.75,-3.15,-42.75,26.2
2026/05/04 21:45:14.82,IMU,-89.36,-59.57,-998.05,1.65,-3.95,-1.15,-23.85,-2.55,-42.15,26.3
2026/05/04 21:45:14.92,IMU,-94.24,-77.15,-998.05,-2.46,0.28,1.32,-24.45,-2.70,-43.05,26.2
2026/05/04 21:45:15.02,IMU,-71.29,-60.55,-981.45,-2.98,-1.85,0.60,-23.70,-3.60,-42.75,25.9
2026/05/04 21:45:15.12,IMU,-76.17,-82.03,-1025.39,-0.49,-0.08,5.05,-24.45,-3.15,-43.05,26.3
2026/05/04 21:45:15.23,IMU,-61.52,-57.62,-1039.55,1.29,-1.22,0.32,-23.55,-4.05,-42.90,26.1
2026/05/04 21:45:15.33,IMU,-85.45,-57.62,-1014.65,1.28,-3.16,1.35,-24.15,-2.25,-42.15,26.3
2026/05/04 21:45:15.43,IMU,-79.10,-66.89,-1009.77,1.68,-1.44,0.62,-22.95,-3.60,-42.30,26.0
2026/05/04 21:45:15.53,IMU,-79.10,-60.55,-1000.49,-0.61,-1.94,1.74,-24.45,-3.60,-42.75,26.4
2026/05/04 21:45:15.63,IMU,-86.91,-70.31,-999.51,0.31,2.68,0.06,-24.15,-4.50,-42.45,26.3
2026/05/04 21:45:15.73,IMU,-80.08,-74.71,-1008.79,-0.59,-0.37,-2.31,-24.00,-3.60,-42.75,26.3
2026/05/04 21:45:15.83,IMU,-92.29,-79.59,-993.65,2.79,-1.31,2.63,-23.55,-3.75,-41.85,26.3
2026/05/04 21:45:15.93,IMU,-69.34,-80.57,-1015.63,-2.57,-0.37,-1.37,-23.55,-3.30,-41.85,26.3
2026/05/04 21:45:16.03,IMU,-70.80,-63.96,-1003.42,0.76,1.24,2.76,-23.10,-3.30,-43.20,26.2
2026/05/04 21:45:16.13,IMU,-62.50,-72.75,-1023.44,0.70,0.81,3.76,-23.85,-3.30,-42.15,26.1
2026/05/04 21:45:16.23,IMU,-84.47,-74.71,-1024.41,5.90,-1.60,1.88,-23.70,-4.65,-42.75,26.2
2026/05/04 21:45:16.33,IMU,-82.03,-88.38,-998.54,2.63,-3.33,-2.06,-23.55,-3.75,-41.10,26.2
2026/05/04 21:45:16.43,IMU,-75.68,-65.92,-1013.67,1.90,-1.56,-0.82,-22.80,-3.30,-41.85,26.1
2026/05/04 21:45:16.53,IMU,-101.56,-91.80,-1006.35,-0.16,-1.39,2.62,-21.75,-3.60,-42.75,26.1
2026/05/04 21:45:16.63,IMU,-111.82,-83.01,-992.68,1.79,-2.33,2.21,-21.75,-4.35,-41.55,26.3
2026/05/04 21:45:16.73,IMU,-132.81,-98.14,-1007.81,-2.95,-4.18,2.27,-22.20,-4.65,-42.75,26.3
2026/05/04 21:45:16.83,IMU,-141.11,-104.49,-970.21,2.09,-0.21,-0.91,-22.05,-3.75,-42.90,25.9
2026/05/04 21:45:16.93,IMU,-108.89,-76.66,-1011.72,0.56,2.47,1.17,-22.35,-4.05,-42.15,26.3
2026/05/04 21:45:17.03,IMU,-120.61,-79.59,-1016.60,2.08,-1.63,0.84,-22.95,-3.90,-42.00,26.2
2026/05/04 21:45:17.13,IMU,-104.98,-92.29,-1021.48,2.28,0.25,-1.34,-22.20,-1.95,-42.30,26.3
2026/05/04 21:45:17.23,IMU,-121.58,-65.43,-1019.53,1.40,-0.06,-4.27,-22.35,-4.80,-40.35,26.2
2026/05/04 21:45:17.33,IMU,-117.68,-89.84,-1036.13,5.12,1.76,-3.13,-23.10,-4.80,-41.85,26.2
2026/05/04 21:45:17.43,IMU,-114.75,-101.07,-1068.85,1.21,2.79,-5.17,-22.20,-3.60,-40.95,26.3
2026/05/04 21:45:17.53,IMU,-138.67,-84.96,-1021.48,3.24,3.18,-3.20,-22.35,-4.05,-40.35,26.3
2026/05/04 21:45:17.63,IMU,-135.25,-117.68,-1005.86,0.29,0.17,-5.16,-22.35,-3.30,-42.45,26.0
2026/05/04 21:45:17.73,IMU,-112.30,-96.19,-1036.62,-3.42,2.90,-2.17,-23.10,-3.30,-40.65,26.3
2026/05/04 21:45:17.83,IMU,-104.00,-129.39,-1006.35,0.52,0.10,2.03,-22.35,-5.25,-41.85,26.3
2026/05/04 21:45:17.93,IMU,-95.70,-116.21,-1012.70,-2.53,-1.11,-2.63,-22.95,-3.60,-42.30,26.1
2026/05/04 21:45:18.03,IMU,-104.49,-82.03,-1026.86,-4.25,3.45,-3.55,-20.85,-4.05,-42.15,26.3
2026/05/04 21:45:18.13,IMU,-109.86,-116.70,-971.68,5.43,-0.15,2.13,-25.35,-7.20,-40.05,25.9
2026/05/04 21:45:18.23,IMU,-140.14,-147.46,-1000.00,-0.60,-0.92,2.96,-21.45,-3.90,-41.55,26.3
2026/05/04 21:45:18.33,IMU,-122.56,-110.84,-992.19,3.47,-2.26,0.94,-22.50,-5.40,-43.05,26.3
2026/05/04 21:45:18.43,IMU,-110.84,-111.33,-979.49,-0.04,0.34,-0.60,-21.60,-4.50,-42.45,26.3
2026/05/04 21:45:18.53,IMU,-89.36,-123.05,-1023.93,2.47,1.37,-0.65,-22.80,-3.00,-43.20,26.3
2026/05/04 21:45:18.63,IMU,-108.89,-134.77,-995.12,2.32,1.80,-3.05,-22.50,-5.85,-42.75,26.4
2026/05/04 21:45:18.73,IMU,-140.14,-115.72,-995.61,-1.21,-0.95,0.02,-22.95,-5.85,-43.05,26.4
2026/05/04 21:45:18.83,IMU,-138.18,-132.32,-1004.39,-3.00,-1.89,2.24,-23.10,-4.80,-42.90,26.5
2026/05/04 21:45:18.95,IMU,-121.09,-153.81,-984.38,4.42,-0.69,0.43,-21.30,-6.00,-42.15,26.3
2026/05/04 21:45:19.05,IMU,-144.53,-158.69,-1005.37,1.96,-3.95,0.74,-21.30,-4.80,-42.45,26.1
2026/05/04 21:45:19.15,IMU,-189.45,-174.32,-1008.79,2.52,-8.72,2.26,-20.70,-6.15,-41.25,26.4
2026/05/04 21:45:19.25,IMU,-146.97,-127.93,-970.70,-8.33,6.40,-2.30,-19.65,-5.85,-42.30,26.1
2026/05/04 21:45:19.35,IMU,-186.52,-128.91,-956.05,3.67,-1.07,-1.11,-20.10,-5.55,-42.15,26.4
2026/05/04 21:45:19.45,IMU,-208.01,-142.58,-995.61,6.43,-7.31,-3.91,-20.55,-6.00,-41.40,26.3
2026/05/04 21:45:19.55,IMU,-156.25,-153.81,-984.38,4.12,2.55,-3.16,-20.55,-6.45,-41.40,26.3
2026/05/04 21:45:19.65,IMU,-196.29,-163.57,-1021.97,11.92,4.31,-1.96,-20.40,-6.15,-42.30,26.5
2026/05/04 21:45:19.76,IMU,-196.78,-201.17,-989.26,3.91,13.21,-3.53,-19.80,-7.50,-40.05,26.4
2026/05/04 21:45:19.86,IMU,-131.35,-256.84,-990.72,20.63,12.16,-3.35,-21.45,-8.10,-40.95,26.4
2026/05/04 21:45:19.96,IMU,-128.91,-294.92,-966.31,45.11,2.47,-3.02,-22.50,-8.10,-38.70,26.1
2026/05/04 21:45:20.06,IMU,-116.70,-341.31,-973.14,-2.78,18.46,2.97,-22.35,-11.70,-38.25,26.5
2026/05/04 21:45:20.16,IMU,-164.06,-349.12,-764.65,3.49,-7.24,-7.73,-22.95,-10.05,-37.65,26.3
2026/05/04 21:45:20.26,IMU,-99.61,-207.03,-1004.39,-32.15,-19.90,14.67,-23.10,-9.45,-38.55,26.5
2026/05/04 21:45:20.36,IMU,-134.28,-268.07,-946.78,5.54,-27.23,-2.50,-19.95,-10.05,-39.45,26.4
2026/05/04 21:45:20.46,IMU,-247.07,-200.68,-1071.29,-29.96,3.13,38.62,-18.75,-9.00,-38.85,26.3
2026/05/04 21:45:20.56,IMU,-250.00,-255.86,-931.64,-10.79,-18.24,13.83,-16.80,-8.25,-40.05,26.4
2026/05/04 21:45:20.66,IMU,-134.77,-45.90,-1096.68,-17.58,-11.89,-27.79,-16.35,-6.90,-42.00,26.5
2026/05/04 21:45:20.76,IMU,-244.63,-167.48,-805.18,-42.62,12.05,32.44,-15.60,-5.10,-41.25,26.4
2026/05/04 21:45:20.86,IMU,-227.54,-47.36,-993.16,27.18,17.61,25.89,-15.15,-3.90,-42.75,26.4
2026/05/04 21:45:20.96,IMU,-315.92,-109.37,-1057.13,-30.93,-4.67,11.54,-13.50,-4.80,-42.45,26.0
2026/05/04 21:45:21.06,IMU,-208.98,-10.74,-1096.19,10.73,17.68,17.76,-14.10,-1.20,-45.15,26.4
2026/05/04 21:45:21.16,IMU,-393.07,-58.59,-1133.30,5.08,16.42,1.83,-14.70,-3.00,-44.25,26.4
2026/05/04 21:45:21.26,IMU,-176.27,-133.79,-1013.18,36.13,-28.11,-12.92,-15.15,-4.35,-42.00,26.3
2026/05/04 21:45:21.36,IMU,-259.77,-197.27,-922.85,33.49,-6.98,-9.85,-15.75,-6.45,-40.35,26.4
2026/05/04 21:45:21.46,IMU,-238.28,-160.64,-920.41,-6.54,19.60,-0.40,-15.45,-6.75,-39.60,26.4
2026/05/04 21:45:21.56,IMU,-111.82,-277.83,-997.07,-7.98,11.88,0.15,-16.05,-6.75,-39.60,26.4
2026/05/04 21:45:21.66,IMU,-160.16,-214.84,-936.52,-2.09,16.07,0.02,-16.50,-7.95,-39.30,26.2
2026/05/04 21:45:21.76,IMU,-225.10,-223.14,-963.87,9.56,2.10,9.24,-16.65,-6.90,-38.40,26.4
2026/05/04 21:45:21.86,IMU,-147.46,-188.48,-1024.90,-4.97,6.46,26.73,-15.45,-8.25,-39.30,25.9
2026/05/04 21:45:21.96,IMU,-115.23,-193.36,-1014.65,-3.78,9.68,3.00,-16.50,-9.00,-38.85,26.4
2026/05/04 21:45:22.06,IMU,-115.23,-190.43,-1055.66,7.61,9.45,12.45,-15.75,-7.95,-39.30,26.1
2026/05/04 21:45:22.16,IMU,-91.80,-180.18,-1002.93,3.74,-2.30,13.74,-15.45,-7.95,-40.05,26.3
2026/05/04 21:45:22.26,IMU,-96.68,-246.09,-1027.83,10.82,9.95,18.47,-15.45,-8.70,-40.05,26.4
2026/05/04 21:45:22.36,IMU,-126.95,-295.90,-961.91,3.48,14.21,-4.74,-15.15,-6.90,-37.95,26.3
2026/05/04 21:45:22.46,IMU,-54.69,-185.06,-905.27,10.05,-0.43,-6.74,-16.05,-8.25,-39.30,26.3
2026/05/04 21:45:22.56,IMU,-85.45,-286.13,-965.82,-12.03,1.66,-45.66,-17.70,-6.60,-38.40,26.5
2026/05/04 21:45:22.66,IMU,91.80,-47.85,-899.41,-23.63,-10.43,-110.65,-22.95,-7.35,-41.25,26.2
2026/05/04 21:45:22.76,IMU,162.11,-266.60,-736.33,-56.68,73.98,-48.02,-22.05,-4.80,-43.65,26.4
2026/05/04 21:45:22.86,IMU,1.46,-40.53,-1087.40,-12.20,39.54,-52.07,-22.80,-3.75,-40.65,26.4
2026/05/04 21:45:22.96,IMU,107.42,-332.52,-1008.30,-63.99,117.90,-6.40,-26.10,-6.00,-42.45,26.4
2026/05/04 21:45:23.08,IMU,435.06,-342.77,-416.02,-128.46,-13.98,12.38,-30.45,-2.55,-43.95,26.0
2026/05/04 21:45:23.18,IMU,1038.57,673.34,-1608.40,195.63,-66.32,120.08,-35.40,2.70,-44.10,26.5
2026/05/04 21:45:23.28,IMU,684.57,471.19,-1062.99,28.52,148.83,168.25,-47.55,16.50,-39.45,26.6
2026/05/04 21:45:23.38,IMU,646.48,302.25,-665.04,-123.89,84.15,-13.73,-43.35,9.45,-42.45,26.3
2026/05/04 21:45:23.48,IMU,477.54,376.95,-731.45,4.95,-9.99,-23.79,-43.95,10.80,-40.95,26.4
2026/05/04 21:45:23.58,IMU,620.12,282.23,-735.35,-5.83,57.79,-13.20,-43.35,13.20,-42.90,26.4
2026/05/04 21:45:23.68,IMU,818.85,272.95,-535.16,-10.69,49.29,-12.88,-46.80,9.60,-39.45,26.4
2026/05/04 21:45:23.78,IMU,780.27,200.68,-567.87,65.31,14.98,-2.15,-49.05,9.60,-37.35,26.4
2026/05/04 21:45:23.88,IMU,627.44,376.95,-633.30,7.07,-46.19,-23.66,-48.90,9.45,-37.05,26.3
2026/05/04 21:45:23.98,IMU,924.80,540.04,-670.41,-43.07,-9.45,105.95,-46.65,11.25,-39.60,26.3
2026/05/04 21:45:24.09,IMU,756.84,389.65,-625.00,-21.19,67.95,5.47,-45.90,9.45,-38.55,26.3
2026/05/04 21:45:24.19,IMU,455.57,303.22,-197.75,-22.43,13.58,13.97,-48.90,10.50,-37.05,26.2
2026/05/04 21:45:24.29,IMU,516.60,646.00,-644.53,19.92,-12.98,29.05,-49.65,12.90,-37.05,26.3
2026/05/04 21:45:24.39,IMU,385.74,473.14,-1376.46,-82.67,153.24,-99.14,-51.75,16.95,-36.45,26.3
2026/05/04 21:45:24.49,IMU,433.59,1013.67,-817.38,103.24,5.18,20.13,-55.50,21.60,-31.35,26.3
2026/05/04 21:45:24.59,IMU,649.90,781.25,-488.28,-30.72,26.55,15.89,-53.10,20.55,-34.80,26.4
2026/05/04 21:45:24.69,IMU,703.13,508.30,-525.88,-19.61,-3.27,6.78,-52.20,20.10,-35.25,26.4
2026/05/04 21:45:24.79,IMU,734.38,497.56,-424.80,4.35,12.28,6.91,-52.95,20.10,-35.25,26.3
2026/05/04 21:45:24.91,IMU,691.41,479.49,-431.64,-27.49,-10.87,1.02,-53.25,21.15,-35.25,26.5
2026/05/04 21:45:25.01,IMU,737.79,511.23,-431.15,-12.23,1.85,3.96,-52.05,21.45,-34.35,26.3
2026/05/04 21:45:25.11,IMU,733.89,540.53,-373.05,-14.92,-4.24,2.05,-51.75,22.65,-34.95,26.3
2026/05/04 21:45:25.21,IMU,713.38,537.60,-393.07,2.26,6.49,3.39,-52.80,22.20,-36.90,26.1
2026/05/04 21:45:25.31,IMU,740.72,519.04,-349.12,-9.74,-4.44,-4.31,-52.80,21.75,-35.55,26.4
2026/05/04 21:45:25.41,IMU,706.54,572.75,-433.11,-9.15,5.04,-8.91,-52.05,21.45,-34.35,26.3
2026/05/04 21:45:25.51,IMU,734.38,577.15,-402.83,-6.42,4.72,-0.88,-52.50,23.10,-35.70,26.3
2026/05/04 21:45:25.61,IMU,729.49,623.05,-478.52,-1.99,-3.89,1.61,-54.90,23.25,-35.10,26.4
2026/05/04 21:45:25.71,IMU,710.45,554.20,-355.47,8.73,-2.23,-2.75,-53.10,24.75,-34.05,26.3
2026/05/04 21:45:25.81,IMU,732.91,581.54,-383.30,4.79,1.66,-1.05,-52.05,24.45,-35.55,26.6
2026/05/04 21:45:25.91,IMU,744.14,547.36,-359.86,-5.22,-2.40,-3.41,-53.70,24.30,-35.70,26.5
2026/05/04 21:45:26.01,IMU,711.91,602.05,-339.36,-0.02,-4.12,-5.36,-54.00,26.10,-33.90,26.2
2026/05/04 21:45:26.11,IMU,721.19,598.14,-353.52,-7.12,-0.17,3.27,-53.10,25.50,-34.80,26.4
2026/05/04 21:45:26.21,IMU,663.57,594.24,-305.66,-6.73,10.08,-0.08,-53.10,26.25,-35.10,26.4
2026/05/04 21:45:26.31,IMU,691.89,582.52,-292.48,7.57,3.35,1.46,-52.95,25.35,-34.65,26.5
2026/05/04 21:45:26.41,IMU,690.92,589.36,-264.16,-58.68,54.91,-19.44,-54.00,27.30,-32.70,26.4
2026/05/04 21:45:26.51,IMU,686.52,674.80,-331.54,18.69,-7.77,3.19,-54.60,28.20,-33.30,26.3
2026/05/04 21:45:26.61,IMU,711.43,575.20,-275.88,-10.56,-4.76,-5.58,-52.50,27.60,-33.15,26.4
2026/05/04 21:45:26.71,IMU,705.57,629.88,-332.52,2.72,1.00,9.77,-53.70,28.35,-32.70,26.4
2026/05/04 21:45:26.81,IMU,665.04,675.29,-264.65,-8.18,1.78,-10.31,-53.70,27.60,-31.65,26.3
2026/05/04 21:45:26.91,IMU,698.73,674.32,-291.99,-10.21,4.71,0.13,-53.70,27.60,-34.20,26.4
2026/05/04 21:45:27.01,IMU,852.05,737.30,-291.99,17.37,2.35,-51.03,-53.25,29.10,-32.70,26.2
2026/05/04 21:45:27.11,IMU,740.72,756.84,-391.11,46.80,-10.31,60.37,-52.95,29.85,-33.45,26.3
2026/05/04 21:45:27.21,IMU,773.44,534.18,-397.46,-6.33,-1.92,-17.43,-52.50,25.80,-34.65,26.6
2026/05/04 21:45:27.31,IMU,691.41,666.50,-449.22,-36.48,47.32,-33.13,-54.75,25.05,-32.70,26.4
2026/05/04 21:45:27.41,IMU,790.53,586.91,-389.16,12.77,-6.51,2.47,-52.20,26.55,-35.70,26.5
2026/05/04 21:45:27.51,IMU,649.41,617.68,-296.88,17.73,-12.95,36.48,-53.10,25.95,-34.35,26.3
2026/05/04 21:45:27.61,IMU,673.83,573.73,-401.37,12.98,-8.53,-3.04,-52.95,27.30,-34.95,26.4
2026/05/04 21:45:27.71,IMU,624.51,525.39,-157.71,33.09,-23.33,51.58,-52.35,27.00,-35.55,26.3
2026/05/04 21:45:27.81,IMU,671.39,543.46,-319.82,34.05,-46.53,33.82,-51.30,25.50,-35.85,26.3
2026/05/04 21:45:27.91,IMU,633.79,458.01,-640.14,72.71,-62.16,14.39,-48.15,20.10,-40.65,26.3
2026/05/04 21:45:28.01,IMU,571.78,457.52,-691.41,107.68,-117.15,103.44,-44.85,13.65,-42.45,26.5
2026/05/04 21:45:28.11,IMU,483.40,249.51,-702.64,35.15,177.11,-1.02,-42.60,13.65,-43.95,26.5
2026/05/04 21:45:28.21,IMU,571.78,205.08,-572.75,-9.36,-87.37,-15.69,-41.70,14.55,-44.55,26.4
2026/05/04 21:45:28.32,IMU,972.17,593.26,284.18,-250.14,111.39,-65.66,-49.35,22.95,-38.70,26.4
2026/05/04 21:45:28.41,IMU,634.77,506.35,-80.08,-19.79,-67.29,-28.43,-46.50,30.15,-39.45,26.8
2026/05/04 21:45:28.51,IMU,420.41,572.75,-325.20,-52.24,38.45,-96.96,-47.55,32.40,-39.15,26.6
2026/05/04 21:45:28.62,IMU,521.48,393.55,-328.61,65.46,-7.25,12.46,-46.50,33.60,-39.45,26.3
2026/05/04 21:45:28.72,IMU,757.81,876.46,-522.46,23.92,9.33,29.50,-46.35,32.25,-39.60,26.6
2026/05/04 21:45:28.82,IMU,760.25,527.83,-243.65,10.34,-31.67,-39.62,-43.65,27.30,-41.40,26.5
2026/05/04 21:45:28.92,IMU,579.59,704.59,-430.66,6.56,14.88,3.76,-44.70,26.70,-42.00,26.3
2026/05/04 21:45:29.03,IMU,364.75,467.77,-818.85,24.53,66.89,-10.66,-46.50,25.95,-40.95,26.4
2026/05/04 21:45:29.13,IMU,746.58,667.48,-519.53,-5.93,-2.78,36.27,-48.30,25.20,-39.15,26.4
2026/05/04 21:45:29.23,IMU,695.80,569.82,-499.02,-0.58,-3.24,-9.65,-46.65,24.30,-40.35,26.4
2026/05/04 21:45:29.33,IMU,778.81,526.37,-463.87,39.55,4.28,7.65,-50.70,20.40,-37.05,26.6
2026/05/04 21:45:29.43,IMU,713.38,499.02,-475.10,-59.19,46.38,12.54,-49.05,21.75,-40.50,26.6
2026/05/04 21:45:29.53,IMU,782.23,502.93,-515.14,-15.34,42.24,13.96,-49.20,21.90,-40.35,26.5
2026/05/04 21:45:29.63,IMU,893.55,495.12,-469.24,79.94,-63.24,30.42,-49.95,20.40,-38.25,26.3
2026/05/04 21:45:29.73,IMU,762.70,450.68,-425.78,13.02,2.17,12.48,-51.30,20.25,-37.35,26.3
2026/05/04 21:45:29.83,IMU,713.87,382.81,-402.34,22.94,19.91,3.38,-50.85,18.30,-36.60,26.3
2026/05/04 21:45:29.93,IMU,825.68,380.86,-426.27,-10.69,65.37,8.21,-53.85,20.25,-32.55,26.6
2026/05/04 21:45:30.03,IMU,769.04,407.23,-182.62,-6.31,25.04,-33.98,-56.40,19.80,-29.70,26.5
2026/05/04 21:45:30.13,IMU,797.36,475.59,-76.66,31.17,-13.31,-25.86,-57.15,23.25,-28.65,26.6
2026/05/04 21:45:30.23,IMU,748.05,523.93,-62.50,49.15,-24.01,-21.96,-55.65,20.55,-28.95,26.5
2026/05/04 21:45:30.34,IMU,1018.07,325.68,-257.81,120.44,39.24,-16.67,-57.00,20.85,-27.75,26.5
2026/05/04 21:45:30.44,IMU,810.06,418.95,-371.09,-29.83,23.28,2.43,-57.15,18.30,-27.90,26.6
2026/05/04 21:45:30.54,IMU,820.31,458.50,-300.29,-7.32,6.46,-10.65,-57.00,17.40,-26.25,26.3
2026/05/04 21:45:30.64,IMU,801.76,508.79,-279.30,4.69,2.61,-9.30,-57.75,16.95,-28.05,26.6
2026/05/04 21:45:30.74,IMU,783.20,404.79,-317.38,0.18,0.62,-0.06,-58.20,18.30,-27.90,26.3
2026/05/04 21:45:30.84,IMU,773.44,513.18,-298.83,-60.53,-39.45,12.36,-56.85,18.75,-28.65,26.4
2026/05/04 21:45:30.94,IMU,820.80,487.79,-337.89,-2.69,-1.08,7.19,-57.00,20.85,-29.55,26.6
2026/05/04 21:45:31.04,IMU,814.94,445.80,-343.26,11.87,1.31,21.19,-57.45,18.00,-28.65,26.4
2026/05/04 21:45:31.14,IMU,840.82,489.26,-252.93,-3.22,7.05,1.20,-56.85,18.00,-29.40,26.3
2026/05/04 21:45:31.24,IMU,888.67,452.64,-234.38,1.78,13.83,3.47,-57.30,16.65,-28.05,26.4
2026/05/04 21:45:31.34,IMU,869.14,400.88,-161.13,-8.80,18.48,0.42,-57.90,16.05,-26.85,26.6
2026/05/04 21:45:31.44,IMU,859.38,415.53,-207.03,-8.98,8.73,0.07,-57.00,16.95,-27.00,26.3
2026/05/04 21:45:31.54,IMU,877.44,410.64,-174.32,-3.45,2.18,1.92,-59.40,16.50,-25.05,26.3
2026/05/04 21:45:31.64,IMU,874.51,391.11,-213.87,-1.69,3.62,2.67,-57.15,15.75,-25.80,26.2
2026/05/04 21:45:31.74,IMU,848.63,410.16,-186.52,0.61,0.70,-0.45,-58.50,16.65,-25.20,26.4
2026/05/04 21:45:31.84,IMU,862.30,420.90,-186.52,3.64,-2.23,1.11,-58.65,17.25,-24.30,26.4
2026/05/04 21:45:31.94,IMU,861.33,429.20,-154.79,-1.41,2.59,-2.31,-57.15,17.55,-24.60,26.6
2026/05/04 21:45:32.04,IMU,885.25,427.25,-150.39,-3.07,-4.61,0.31,-58.80,17.40,-25.20,26.3
2026/05/04 21:45:32.14,IMU,860.84,420.41,-224.61,-0.01,-1.34,1.79,-58.50,17.70,-25.50,26.3
2026/05/04 21:45:32.24,IMU,848.14,446.29,-215.33,4.58,-1.98,3.42,-58.50,18.15,-25.95,26.6
2026/05/04 21:45:32.34,IMU,869.14,419.43,-232.42,5.02,-11.83,0.90,-58.95,17.25,-25.80,26.4
2026/05/04 21:45:32.44,IMU,887.21,368.65,-217.77,3.67,-2.12,-1.14,-58.05,15.45,-26.70,26.5
2026/05/04 21:45:32.54,IMU,873.54,437.99,-114.26,-3.77,-1.12,2.42,-58.20,17.25,-25.80,26.4
2026/05/04 21:45:32.64,IMU,891.60,399.41,-201.66,1.17,-17.97,3.87,-58.65,16.80,-25.35,26.3
2026/05/04 21:45:32.74,IMU,858.89,403.81,-296.88,7.47,-26.38,14.11,-56.85,16.80,-28.65,26.4
2026/05/04 21:45:32.84,IMU,848.14,389.65,-281.25,0.81,-2.47,3.76,-55.65,15.75,-28.65,26.5
2026/05/04 21:45:32.94,IMU,892.58,407.71,-238.28,1.10,-0.44,2.63,-56.55,16.65,-29.10,26.4
2026/05/04 21:45:33.04,IMU,873.05,375.49,-334.47,0.77,-7.51,-0.09,-57.45,16.80,-28.95,26.5
2026/05/04 21:45:33.14,IMU,856.93,385.74,-314.45,-0.11,1.49,0.61,-55.35,14.55,-28.65,26.5
2026/05/04 21:45:33.24,IMU,850.10,384.28,-308.59,-0.17,-1.92,3.44,-55.80,14.70,-28.80,26.6
2026/05/04 21:45:33.34,IMU,892.09,390.14,-314.94,0.72,-5.12,4.29,-55.50,16.20,-28.80,26.3
2026/05/04 21:45:33.44,IMU,851.56,395.02,-348.14,2.02,-8.08,0.99,-55.35,14.85,-30.45,26.5
2026/05/04 21:45:33.54,IMU,874.02,360.84,-318.36,2.20,0.10,0.23,-55.65,13.80,-30.45,26.5
2026/05/04 21:45:33.65,IMU,851.07,369.63,-321.78,2.94,-4.82,1.51,-56.25,12.90,-31.35,26.1
2026/05/04 21:45:33.75,IMU,858.89,350.59,-353.52,2.38,-7.16,0.49,-55.35,13.80,-30.45,26.4
2026/05/04 21:45:33.85,IMU,843.75,370.12,-357.91,2.74,-3.07,2.65,-54.15,13.80,-29.70,26.5
2026/05/04 21:45:33.95,IMU,866.21,344.24,-335.94,1.25,0.13,0.11,-55.65,13.05,-31.50,26.4
2026/05/04 21:45:34.05,IMU,860.84,355.47,-337.40,1.17,-2.54,4.73,-55.50,13.20,-31.35,26.5
2026/05/04 21:45:34.15,IMU,844.24,351.56,-385.74,0.89,-3.01,0.28,-54.45,12.90,-30.60,26.5
2026/05/04 21:45:34.26,IMU,846.68,353.03,-394.53,1.50,-1.63,2.23,-53.85,13.80,-30.45,26.3
2026/05/04 21:45:34.36,IMU,862.30,342.77,-361.33,2.48,3.26,-1.21,-54.15,14.10,-30.75,26.4
2026/05/04 21:45:34.46,IMU,853.52,356.93,-392.09,0.31,-1.65,-0.11,-54.60,13.80,-33.60,26.3
2026/05/04 21:45:34.56,IMU,846.19,331.54,-369.63,-1.18,1.03,-3.63,-52.95,14.40,-32.10,26.3
2026/05/04 21:45:34.66,IMU,862.30,316.41,-368.16,1.95,1.15,-6.44,-55.35,14.10,-31.80,26.6
2026/05/04 21:45:34.76,IMU,830.57,322.27,-361.82,-6.53,-4.87,-5.47,-54.75,12.45,-32.40,26.6
2026/05/04 21:45:34.86,IMU,848.14,382.32,-342.29,-5.61,9.53,-2.81,-55.05,14.40,-31.65,26.4
2026/05/04 21:45:34.96,IMU,804.20,356.93,-404.79,2.07,1.71,0.69,-55.80,13.95,-32.40,26.5
2026/05/04 21:45:35.06,IMU,842.77,310.06,-406.25,-2.71,-0.64,1.42,-55.50,13.65,-31.35,26.4
2026/05/04 21:45:35.16,IMU,865.72,388.18,-343.26,0.31,-2.85,-1.21,-54.60,13.80,-30.75,26.5
2026/05/04 21:45:35.26,IMU,848.14,365.23,-345.21,-4.31,5.39,-0.63,-54.75,15.15,-30.90,26.4
2026/05/04 21:45:35.36,IMU,825.20,400.39,-321.78,-2.72,8.51,0.74,-55.65,14.85,-30.45,26.5
2026/05/04 21:45:35.46,IMU,856.93,396.97,-322.75,1.94,-0.69,-1.41,-57.90,12.60,-26.10,26.1
2026/05/04 21:45:35.56,IMU,858.40,363.77,-285.64,2.15,1.92,-2.52,-55.65,13.80,-29.70,26.3
2026/05/04 21:45:35.66,IMU,868.65,378.91,-344.24,0.46,1.86,0.11,-54.90,14.55,-29.70,26.4
2026/05/04 21:45:35.76,IMU,846.19,367.68,-308.11,-3.63,1.45,-2.78,-54.75,14.70,-30.60,26.3
2026/05/04 21:45:35.86,IMU,861.82,369.63,-386.23,0.91,-0.81,-0.08,-54.15,14.10,-28.65,26.4
2026/05/04 21:45:35.96,IMU,868.65,364.26,-372.56,1.25,-3.35,-1.72,-55.35,14.10,-30.45,26.2
2026/05/04 21:45:36.06,IMU,765.14,502.93,-289.06,10.26,2.31,12.68,-55.05,15.45,-30.60,26.2
2026/05/04 21:45:36.16,IMU,817.87,362.30,-373.54,19.96,-6.89,-2.12,-55.05,14.40,-30.30,26.3
2026/05/04 21:45:36.26,IMU,850.10,380.37,-401.86,-6.27,3.95,-3.71,-54.75,15.45,-30.60,26.3
2026/05/04 21:45:36.36,IMU,837.40,371.09,-336.91,3.83,5.76,-1.76,-54.15,16.05,-30.45,26.3
2026/05/04 21:45:36.47,IMU,854.98,400.88,-392.58,-1.40,14.77,-10.06,-55.35,14.55,-30.45,26.4
2026/05/04 21:45:36.57,IMU,829.10,355.96,-331.05,-4.95,11.73,-1.72,-56.40,13.05,-28.65,26.6
2026/05/04 21:45:36.67,IMU,862.79,390.63,-377.44,0.01,0.44,-3.04,-55.80,16.20,-28.80,26.4
2026/05/04 21:45:36.77,IMU,856.93,369.63,-309.08,0.22,1.07,-1.35,-55.80,14.40,-29.10,26.5
2026/05/04 21:45:36.87,IMU,844.73,380.37,-312.01,-2.02,6.70,-0.50,-56.25,14.40,-28.05,26.4
2026/05/04 21:45:36.97,IMU,811.04,403.32,-308.11,1.68,-8.17,-1.46,-57.90,14.55,-28.20,26.3
2026/05/04 21:45:37.07,IMU,875.49,359.86,-343.26,2.91,1.02,-2.31,-55.65,14.55,-28.95,26.4
2026/05/04 21:45:37.17,IMU,882.32,399.90,-351.56,3.94,2.28,-3.95,-57.15,15.75,-28.65,26.4
2026/05/04 21:45:37.27,IMU,862.30,368.16,-221.68,5.68,6.82,-16.56,-56.85,16.05,-27.15,26.5
2026/05/04 21:45:37.37,IMU,838.87,372.07,-239.26,-5.33,12.50,-12.80,-56.25,15.15,-27.75,26.3
2026/05/04 21:45:37.47,IMU,791.50,364.75,-262.21,-1.66,11.72,-15.20,-58.50,16.20,-26.70,26.2
2026/05/04 21:45:37.57,IMU,867.68,443.85,-196.78,-4.16,9.98,-8.11,-58.50,17.70,-25.20,26.4
2026/05/04 21:45:37.67,IMU,837.40,447.27,-258.79,2.70,3.65,-1.94,-58.50,18.90,-24.15,26.2
2026/05/04 21:45:37.78,IMU,864.26,478.03,-166.02,-4.67,4.95,14.91,-58.50,19.65,-24.90,26.5
2026/05/04 21:45:37.88,IMU,816.89,402.34,-235.84,-0.57,-2.82,0.34,-57.30,18.15,-24.90,26.4
2026/05/04 21:45:37.98,IMU,870.12,455.08,-237.79,-9.34,13.30,2.89,-59.40,17.25,-25.05,26.3
2026/05/04 21:45:38.09,IMU,880.86,427.25,-187.50,0.02,3.24,5.21,-57.75,16.65,-25.50,26.6
2026/05/04 21:45:38.19,IMU,846.68,429.69,-205.08,4.35,-11.15,-0.90,-59.10,18.15,-24.15,26.4
2026/05/04 21:45:38.29,IMU,838.38,417.97,-268.07,0.40,2.69,-8.13,-58.80,17.70,-24.45,26.4
2026/05/04 21:45:38.39,IMU,827.64,475.10,-206.05,-0.31,3.12,-6.79,-58.65,18.75,-25.80,26.4
2026/05/04 21:45:38.49,IMU,870.12,426.76,-213.87,-2.36,0.31,-0.63,-59.40,16.50,-25.80,26.5
2026/05/04 21:45:38.59,IMU,829.10,404.30,-214.84,2.52,-8.99,4.81,-58.20,16.50,-26.10,26.4
2026/05/04 21:45:38.69,IMU,814.94,418.46,-209.47,0.34,-6.31,-1.48,-58.20,18.30,-26.10,26.6
2026/05/04 21:45:38.79,IMU,856.45,464.36,-291.02,-5.03,1.66,-4.87,-58.80,18.90,-26.25,26.4
2026/05/04 21:45:38.89,IMU,866.70,448.73,-300.78,4.55,-3.54,-4.13,-58.50,16.65,-23.40,26.7
2026/05/04 21:45:38.99,IMU,817.38,423.83,-244.14,7.60,-2.95,-3.95,-58.80,20.10,-25.95,26.7
2026/05/04 21:45:39.09,IMU,826.17,463.38,-183.11,2.07,2.51,-4.50,-58.65,18.00,-26.40,26.4
2026/05/04 21:45:39.19,IMU,794.92,483.40,-214.36,-8.28,-2.04,-5.67,-56.85,20.25,-25.80,26.6
2026/05/04 21:45:39.29,IMU,822.75,505.86,-332.52,1.89,7.07,-12.13,-58.65,19.50,-26.10,26.6
2026/05/04 21:45:39.39,IMU,783.69,489.75,-310.06,8.73,0.50,-23.53,-57.90,21.00,-27.15,26.3
2026/05/04 21:45:39.49,IMU,838.87,556.15,-250.49,-3.98,-0.37,-3.36,-58.50,21.90,-26.25,26.6
2026/05/04 21:45:39.59,IMU,811.04,537.60,-223.63,-0.50,-2.67,-2.16,-58.65,21.75,-27.15,26.5
2026/05/04 21:45:39.69,IMU,784.67,503.91,-175.78,2.87,-6.91,1.66,-59.40,21.45,-27.90,26.6
2026/05/04 21:45:39.79,IMU,800.29,493.16,-226.56,-4.80,0.11,3.95,-57.75,21.60,-26.25,26.7
2026/05/04 21:45:39.91,IMU,813.96,516.60,-183.59,2.55,-7.85,7.53,-58.05,23.10,-25.20,26.8
2026/05/04 21:45:40.01,IMU,795.41,497.07,-244.63,1.68,2.49,2.49,-58.05,21.15,-26.25,26.4
2026/05/04 21:45:40.11,IMU,827.64,403.32,-233.89,4.43,-7.56,1.79,-57.75,21.15,-26.70,26.8
2026/05/04 21:45:40.21,IMU,787.11,468.26,-282.71,3.29,-3.62,1.34,-57.75,20.85,-25.95,26.6
2026/05/04 21:45:40.31,IMU,796.39,501.46,-201.66,-0.95,1.44,2.71,-58.20,20.25,-27.90,26.5
2026/05/04 21:45:40.41,IMU,797.85,514.65,-248.54,1.02,1.05,4.56,-57.90,20.55,-27.15,26.5
2026/05/04 21:45:40.51,IMU,806.64,487.30,-278.32,3.54,-3.25,0.48,-58.05,20.10,-27.75,26.6
2026/05/04 21:45:40.61,IMU,811.52,487.30,-237.30,0.82,2.02,1.18,-57.15,19.80,-25.35,26.6
2026/05/04 21:45:40.71,IMU,809.08,491.21,-234.38,-3.31,4.32,-2.59,-57.90,20.55,-25.80,26.7
2026/05/04 21:45:40.81,IMU,798.34,491.21,-241.21,-3.97,-1.14,-2.15,-57.90,21.00,-27.15,26.7
2026/05/04 21:45:40.91,IMU,805.18,488.28,-250.98,0.08,-1.66,1.40,-57.75,22.65,-27.00,26.7
2026/05/04 21:45:41.01,IMU,796.88,520.51,-249.02,1.63,2.65,-0.21,-57.75,20.40,-27.75,26.8
2026/05/04 21:45:41.11,IMU,816.41,486.33,-246.58,-1.89,-1.58,2.24,-57.90,19.80,-26.10,26.8
2026/05/04 21:45:41.21,IMU,817.87,487.30,-278.32,-0.48,-1.92,5.19,-59.40,19.50,-26.85,26.4
2026/05/04 21:45:41.31,IMU,837.89,511.23,-261.72,-2.82,-4.02,3.56,-57.00,18.90,-25.50,26.8
2026/05/04 21:45:41.41,IMU,835.94,471.19,-274.90,-3.40,0.61,3.86,-57.75,20.10,-27.00,26.9
2026/05/04 21:45:41.51,IMU,826.66,476.56,-314.45,-1.27,5.11,-0.73,-58.80,19.35,-26.70,26.5
2026/05/04 21:45:41.61,IMU,820.31,479.98,-257.81,0.68,-5.08,0.08,-58.20,19.05,-27.15,26.7
2026/05/04 21:45:41.71,IMU,801.27,451.17,-293.46,7.07,-7.57,-2.22,-58.05,18.60,-26.70,26.6
2026/05/04 21:45:41.81,IMU,826.17,467.29,-245.61,8.55,-5.46,8.79,-58.05,18.90,-27.30,26.7
2026/05/04 21:45:41.91,IMU,800.29,483.40,-312.99,-3.89,-2.72,1.31,-57.90,19.05,-28.95,26.8
2026/05/04 21:45:42.01,IMU,822.75,508.79,-346.68,0.20,-6.06,10.94,-57.00,20.40,-27.00,26.7
2026/05/04 21:45:42.11,IMU,856.93,370.12,-285.64,0.25,-0.88,-3.23,-57.15,19.05,-27.60,26.6
2026/05/04 21:45:42.21,IMU,818.36,499.51,-255.37,-4.35,1.11,-4.21,-57.00,20.10,-29.10,26.5
2026/05/04 21:45:42.31,IMU,832.03,433.59,-339.36,5.80,0.69,-1.94,-56.85,18.00,-27.15,26.8
2026/05/04 21:45:42.41,IMU,824.71,468.26,-250.98,-1.82,4.26,0.54,-55.65,19.50,-26.85,26.7
2026/05/04 21:45:42.51,IMU,835.94,482.91,-234.86,-0.43,0.50,-3.73,-56.85,19.05,-26.85,26.8
2026/05/04 21:45:42.61,IMU,824.71,424.80,-317.38,8.44,-2.65,-1.64,-57.15,19.80,-28.95,26.7
2026/05/04 21:45:42.71,IMU,810.55,469.24,-285.16,1.91,-4.54,6.47,-56.55,16.95,-27.30,26.7
2026/05/04 21:45:42.82,IMU,831.05,464.36,-289.06,13.18,-2.05,-7.12,-58.50,18.90,-29.10,26.8
2026/05/04 21:45:42.92,IMU,810.55,460.45,-281.74,5.39,2.58,0.88,-56.40,17.25,-28.20,26.8
2026/05/04 21:45:43.02,IMU,801.27,448.24,-362.30,3.37,-14.45,5.74,-56.25,17.70,-28.05,26.5
2026/05/04 21:45:43.12,IMU,786.13,468.26,-395.51,-15.12,-16.69,7.64,-56.55,15.90,-28.80,26.4
2026/05/04 21:45:43.22,IMU,795.41,397.46,-445.80,-3.08,11.82,18.66,-54.60,14.55,-31.80,26.8
2026/05/04 21:45:43.32,IMU,817.87,363.77,-375.49,17.02,-0.63,14.74,-55.80,15.45,-29.85,26.8
2026/05/04 21:45:43.42,IMU,848.14,401.86,-373.54,9.32,-5.39,11.79,-55.50,14.40,-29.55,26.6
2026/05/04 21:45:43.52,IMU,830.08,326.17,-391.60,0.78,0.63,10.16,-54.60,12.60,-30.00,26.8
2026/05/04 21:45:43.62,IMU,872.07,297.85,-398.93,4.24,9.21,17.07,-58.95,10.05,-24.60,26.4
2026/05/04 21:45:43.72,IMU,837.89,291.02,-433.11,7.18,-16.23,4.40,-53.70,11.25,-30.30,26.5
2026/05/04 21:45:43.82,IMU,836.91,295.90,-469.73,3.23,-10.89,-3.71,-54.15,12.30,-30.45,26.7
2026/05/04 21:45:43.92,IMU,813.48,300.29,-465.33,1.12,-16.57,-29.34,-56.10,12.30,-32.25,26.4
2026/05/04 21:45:44.03,IMU,749.02,373.54,-473.63,22.87,-4.22,-17.11,-54.60,12.60,-31.50,26.4
2026/05/04 21:45:44.13,IMU,850.59,428.22,-463.87,18.22,0.11,7.74,-53.40,13.80,-31.20,26.6
2026/05/04 21:45:44.23,IMU,771.97,367.68,-486.33,-19.87,-29.74,-2.76,-54.15,14.10,-31.20,26.5
2026/05/04 21:45:44.33,IMU,709.96,400.39,-606.93,-14.27,1.28,-5.94,-52.35,12.30,-34.35,26.7
2026/05/04 21:45:44.43,IMU,709.47,312.01,-547.36,-16.98,-2.32,4.95,-52.95,13.65,-34.65,26.6
2026/05/04 21:45:44.53,IMU,757.81,385.74,-449.22,-17.69,1.08,-7.34,-52.05,15.75,-35.10,26.5
2026/05/04 21:45:44.63,IMU,774.90,371.58,-485.84,-25.40,1.34,6.52,-55.80,12.90,-31.35,26.6
2026/05/04 21:45:44.73,IMU,753.91,433.11,-479.98,-26.24,19.84,7.41,-51.75,16.65,-34.95,26.8
2026/05/04 21:45:44.83,IMU,779.79,438.96,-401.37,-5.31,3.31,6.89,-51.75,16.95,-36.00,26.7
2026/05/04 21:45:44.93,IMU,747.56,463.87,-508.30,-17.69,11.95,-0.85,-52.20,17.40,-34.65,26.6
2026/05/04 21:45:45.03,IMU,842.77,363.77,-261.72,-23.86,47.56,4.52,-54.00,16.95,-32.10,26.7
2026/05/04 21:45:45.14,IMU,832.52,514.16,-209.47,-8.36,5.16,9.37,-55.50,18.60,-30.90,26.5
2026/05/04 21:45:45.24,IMU,820.80,444.82,-344.73,-14.10,-10.35,4.25,-54.90,18.30,-31.20,26.8
2026/05/04 21:45:45.34,IMU,813.96,487.79,-262.21,-9.33,2.60,9.29,-54.45,17.40,-32.10,26.6
2026/05/04 21:45:45.44,IMU,764.65,386.72,-391.11,2.32,8.18,2.93,-54.75,18.90,-33.45,26.6
2026/05/04 21:45:45.54,IMU,817.87,423.34,-326.66,-2.24,8.26,-2.26,-54.75,16.95,-32.40,26.7
2026/05/04 21:45:45.64,IMU,847.66,459.96,-299.32,15.19,-14.70,-7.05,-54.45,16.95,-31.35,26.8
2026/05/04 21:45:45.74,IMU,790.53,406.74,-407.23,18.13,-6.11,-9.64,-52.80,18.30,-33.30,26.8
2026/05/04 21:45:45.84,IMU,817.87,484.86,-443.85,20.49,-18.11,2.83,-52.95,16.95,-33.45,26.5
2026/05/04 21:45:45.94,IMU,795.90,428.71,-423.34,-6.39,0.88,14.97,-53.10,16.50,-32.25,26.7
2026/05/04 21:45:46.04,IMU,801.76,416.02,-407.71,17.93,-16.76,-5.33,-51.45,17.40,-35.25,26.8
2026/05/04 21:45:46.14,IMU,749.02,365.72,-602.05,26.43,-17.32,-7.51,-51.30,16.50,-35.55,26.6
2026/05/04 21:45:46.24,IMU,770.51,406.25,-460.94,9.12,-5.81,-1.71,-50.85,15.30,-36.90,26.8
2026/05/04 21:45:46.34,IMU,740.72,401.37,-489.75,-8.45,7.89,-3.99,-51.45,15.90,-34.65,26.7
2026/05/04 21:45:46.44,IMU,796.88,380.86,-532.23,-14.18,13.04,-1.72,-53.40,15.75,-36.15,26.7
2026/05/04 21:45:46.54,IMU,791.02,483.40,-432.13,-16.80,8.50,4.18,-52.35,16.50,-34.80,26.6
2026/05/04 21:45:46.64,IMU,766.11,434.08,-401.86,-7.97,10.73,2.21,-53.70,17.40,-33.90,26.4
2026/05/04 21:45:46.74,IMU,782.23,448.73,-421.88,-5.13,1.64,-0.80,-52.05,18.30,-34.35,26.7
2026/05/04 21:45:46.84,IMU,774.41,469.73,-397.95,5.55,-12.73,8.97,-53.40,18.30,-32.55,26.5
2026/05/04 21:45:46.94,IMU,784.18,461.43,-386.23,-2.43,3.89,5.56,-52.05,17.55,-35.10,26.8
2026/05/04 21:45:47.04,IMU,765.14,413.57,-410.16,0.35,2.90,-2.61,-53.10,18.00,-35.85,26.8
2026/05/04 21:45:47.14,IMU,806.15,457.52,-400.88,-0.61,-0.57,3.53,-52.80,17.25,-35.55,26.8
2026/05/04 21:45:47.24,IMU,766.60,408.69,-432.62,-3.14,0.90,-0.40,-52.35,16.80,-35.10,26.7
2026/05/04 21:45:47.34,IMU,771.00,428.71,-423.34,0.02,0.95,5.69,-53.70,16.65,-35.70,26.4
2026/05/04 21:45:47.44,IMU,753.42,409.67,-418.46,-1.08,-1.66,-0.05,-52.35,16.05,-35.10,26.7
2026/05/04 21:45:47.54,IMU,798.83,386.72,-421.88,-3.02,2.10,1.67,-52.50,16.20,-34.95,26.7
2026/05/04 21:45:47.64,IMU,791.99,432.62,-395.51,-2.17,1.70,4.29,-53.25,16.95,-36.00,26.8
2026/05/04 21:45:47.74,IMU,775.88,396.00,-451.66,0.55,1.08,7.40,-53.25,16.65,-35.25,26.8
2026/05/04 21:45:47.84,IMU,760.25,379.39,-530.27,2.93,-1.91,0.50,-51.75,15.45,-34.65,26.7
2026/05/04 21:45:47.94,IMU,810.55,451.66,-419.92,0.40,5.01,-5.79,-52.35,16.50,-34.80,26.8
2026/05/04 21:45:48.04,IMU,822.75,410.64,-404.30,-0.24,-4.27,-1.79,-54.00,15.90,-36.45,26.9
2026/05/04 21:45:48.14,IMU,796.88,382.32,-449.71,2.52,-6.98,5.07,-51.00,15.15,-35.25,26.7
2026/05/04 21:45:48.24,IMU,790.53,409.18,-441.41,-0.36,1.35,-1.14,-52.80,17.25,-35.10,26.7
2026/05/04 21:45:48.34,IMU,808.59,410.16,-437.50,5.00,-1.66,1.47,-52.95,14.70,-33.90,26.7
2026/05/04 21:45:48.45,IMU,793.95,345.70,-465.82,2.92,-0.79,2.99,-52.20,15.45,-36.75,26.8
2026/05/04 21:45:48.55,IMU,807.62,406.74,-409.18,0.18,3.44,-2.07,-53.40,14.55,-35.55,27.0
2026/05/04 21:45:48.65,IMU,794.92,385.74,-457.52,0.69,-0.33,3.83,-52.20,15.45,-35.70,26.7
2026/05/04 21:45:48.75,IMU,775.39,343.26,-498.05,9.50,-11.63,11.89,-52.80,14.10,-33.00,26.4
2026/05/04 21:45:48.85,IMU,711.43,303.22,-481.45,6.75,-3.63,-34.47,-52.35,16.05,-35.10,26.7
2026/05/04 21:45:48.95,IMU,743.16,650.39,-514.65,24.81,-51.42,-47.11,-51.00,18.60,-36.75,26.6
2026/05/04 21:45:49.05,IMU,707.52,368.16,-591.80,26.31,-6.44,24.82,-50.85,17.55,-37.95,26.8
2026/05/04 21:45:49.15,IMU,712.40,449.22,-520.51,-6.63,10.95,10.43,-52.05,17.25,-38.70,26.4
2026/05/04 21:45:49.25,IMU,729.00,254.39,-528.32,-0.56,17.64,5.62,-52.05,16.50,-36.60,26.8
2026/05/04 21:45:49.35,IMU,724.12,441.89,-521.00,-2.00,13.98,1.73,-52.50,15.15,-36.75,27.0
2026/05/04 21:45:49.45,IMU,733.40,421.88,-504.39,3.89,2.81,9.23,-51.60,16.50,-36.60,26.5
2026/05/04 21:45:49.55,IMU,694.82,412.60,-613.77,-3.40,-15.18,12.09,-51.75,15.15,-36.00,26.5
2026/05/04 21:45:49.65,IMU,754.88,367.68,-516.60,-5.37,14.84,3.04,-51.45,15.90,-36.75,26.8
2026/05/04 21:45:49.75,IMU,759.28,420.90,-439.45,-10.08,0.61,4.40,-54.75,14.40,-33.45,26.5
2026/05/04 21:45:49.85,IMU,750.00,412.11,-479.49,-5.09,7.26,6.73,-51.60,16.05,-36.15,26.9
2026/05/04 21:45:49.97,IMU,770.51,427.25,-446.78,-2.79,-2.01,15.45,-51.75,16.65,-35.70,26.8
2026/05/04 21:45:50.07,IMU,753.91,370.12,-484.86,-1.15,-9.44,17.49,-51.45,16.65,-36.00,26.6
2026/05/04 21:45:50.17,IMU,793.46,371.58,-505.37,-3.48,1.78,14.73,-50.70,14.40,-36.45,26.8
2026/05/04 21:45:50.27,IMU,804.20,341.80,-491.70,1.44,-0.48,18.88,-50.40,13.65,-37.50,26.5
2026/05/04 21:45:50.37,IMU,817.87,342.77,-464.36,0.21,-14.80,21.17,-51.45,11.70,-34.95,26.3
2026/05/04 21:45:50.47,IMU,842.77,333.01,-428.71,3.65,-11.12,24.66,-49.05,10.80,-36.60,26.8
2026/05/04 21:45:50.57,IMU,823.73,237.79,-512.21,6.67,-2.24,32.95,-48.15,7.50,-36.75,26.6
2026/05/04 21:45:50.67,IMU,809.08,166.99,-485.84,1.62,-7.84,12.97,-48.45,7.50,-37.50,26.9
2026/05/04 21:45:50.77,IMU,807.62,196.29,-496.09,1.89,5.95,-3.22,-49.80,6.15,-33.30,26.8
2026/05/04 21:45:50.87,IMU,842.77,211.91,-477.54,-1.60,3.66,6.39,-48.30,6.60,-35.10,26.8
2026/05/04 21:45:50.97,IMU,822.27,218.75,-483.89,1.89,2.43,2.66,-50.70,8.25,-35.70,26.7
2026/05/04 21:45:51.07,IMU,825.68,183.11,-502.93,-4.35,-8.89,9.31,-48.90,8.25,-35.70,26.9
2026/05/04 21:45:51.17,IMU,845.21,170.90,-479.98,1.71,-0.31,2.44,-49.05,7.35,-37.35,26.9
2026/05/04 21:45:51.27,IMU,844.24,161.13,-490.72,3.09,0.24,-6.77,-48.75,5.40,-36.15,26.8
2026/05/04 21:45:51.37,IMU,831.54,178.22,-488.77,0.85,-5.73,-1.85,-47.55,6.90,-36.90,26.7
2026/05/04 21:45:51.47,IMU,846.19,208.01,-562.01,3.18,-4.35,2.04,-48.90,7.50,-35.70,26.8
2026/05/04 21:45:51.57,IMU,820.80,195.80,-507.32,-0.37,5.06,2.18,-48.75,6.90,-36.60,26.9
2026/05/04 21:45:51.68,IMU,835.94,198.24,-502.44,-1.31,1.98,3.55,-49.20,7.95,-36.75,26.7
2026/05/04 21:45:51.78,IMU,835.94,195.31,-469.73,-1.38,-7.37,-6.59,-50.55,3.90,-32.55,26.4
2026/05/04 21:45:51.88,IMU,812.01,184.08,-541.99,0.31,-4.30,-2.33,-46.80,5.85,-37.65,26.9
2026/05/04 21:45:51.98,IMU,820.80,209.47,-508.79,0.30,-3.04,-2.09,-47.55,6.60,-37.65,26.7
2026/05/04 21:45:52.08,IMU,798.34,185.06,-560.06,-2.34,0.15,-2.95,-47.55,6.60,-37.35,26.4
2026/05/04 21:45:52.18,IMU,812.01,201.17,-512.70,-1.46,2.40,-0.31,-46.65,7.20,-37.05,26.7
2026/05/04 21:45:52.28,IMU,796.88,208.50,-547.85,-1.79,0.24,-1.69,-47.10,7.20,-39.30,26.7
2026/05/04 21:45:52.38,IMU,804.69,217.77,-526.37,0.13,-3.32,-6.85,-47.70,7.95,-38.25,26.9
2026/05/04 21:45:52.48,IMU,800.78,224.12,-540.04,1.08,0.57,-0.44,-48.15,8.70,-38.55,26.8
2026/05/04 21:45:52.58,IMU,840.33,236.33,-535.16,-1.11,2.66,3.26,-48.90,9.00,-37.50,26.9
2026/05/04 21:45:52.68,IMU,803.22,194.82,-543.95,-0.90,1.28,2.04,-47.70,9.75,-37.80,26.7
2026/05/04 21:45:52.79,IMU,824.71,264.16,-520.02,-1.24,-2.92,-9.98,-48.45,9.45,-36.75,26.9
2026/05/04 21:45:52.89,IMU,833.01,300.29,-554.69,-0.81,3.67,-3.37,-49.05,10.05,-36.90,26.9
2026/05/04 21:45:52.99,IMU,834.96,258.79,-479.00,0.95,-5.08,-3.14,-48.30,9.60,-38.40,26.9
2026/05/04 21:45:53.09,IMU,799.80,230.96,-516.60,-6.37,5.73,-1.69,-48.00,8.40,-37.95,27.0
2026/05/04 21:45:53.19,IMU,844.24,279.79,-470.21,-5.21,1.36,1.46,-47.55,10.35,-36.90,26.8
2026/05/04 21:45:53.29,IMU,772.46,184.08,-532.71,-2.09,-3.44,4.57,-48.90,9.00,-38.25,26.6
2026/05/04 21:45:53.39,IMU,766.60,255.37,-565.43,5.85,-3.27,-3.92,-49.65,9.75,-38.85,27.0
2026/05/04 21:45:53.49,IMU,783.69,277.34,-636.23,14.33,0.73,5.36,-46.35,8.25,-38.85,26.8
2026/05/04 21:45:53.59,IMU,866.21,285.64,-409.67,13.02,9.26,-5.85,-48.45,9.75,-38.55,26.8
2026/05/04 21:45:53.69,IMU,799.80,300.29,-512.21,-1.73,2.17,-8.09,-48.30,9.30,-36.90,26.9
2026/05/04 21:45:53.79,IMU,828.13,324.22,-536.62,2.09,3.04,-3.39,-48.15,9.45,-38.25,26.8
2026/05/04 21:45:53.90,IMU,742.68,270.51,-573.24,3.89,-6.52,-18.00,-50.55,7.35,-34.05,27.0
2026/05/04 21:45:54.00,IMU,988.77,543.46,-304.69,-102.26,7.25,-218.42,-51.00,13.95,-39.30,27.0
2026/05/04 21:45:54.10,IMU,562.01,306.64,-529.30,-1.06,12.54,-82.90,-50.70,21.15,-37.05,26.8
2026/05/04 21:45:54.20,IMU,591.80,891.11,-235.84,-51.80,16.81,-95.79,-52.50,28.05,-35.25,26.8
2026/05/04 21:45:54.30,IMU,409.18,675.78,-376.46,1.55,60.78,-104.20,-54.90,40.35,-28.95,26.9
2026/05/04 21:45:54.40,IMU,385.74,961.91,-192.87,57.28,-23.22,-76.45,-51.30,45.75,-28.65,27.0
2026/05/04 21:45:54.50,IMU,262.21,916.99,-233.40,-8.04,45.30,-101.30,-47.70,47.70,-29.10,26.9
2026/05/04 21:45:54.60,IMU,143.55,844.73,-127.44,-20.87,2.63,-38.79,-46.50,50.55,-28.65,27.0
2026/05/04 21:45:54.70,IMU,98.14,989.26,-243.65,16.79,-13.50,7.73,-44.25,50.55,-30.45,26.8
2026/05/04 21:45:54.80,IMU,179.69,1183.59,-457.03,169.94,-170.85,6.40,-45.75,50.25,-32.25,27.1
2026/05/04 21:45:54.90,IMU,35.64,909.67,-310.06,21.25,-7.72,-18.50,-42.00,51.00,-33.00,27.0
2026/05/04 21:45:55.00,IMU,-25.39,896.48,-489.26,18.88,5.71,-25.18,-41.55,51.60,-32.40,27.0
2026/05/04 21:45:55.10,IMU,-48.34,909.67,-291.02,101.74,12.40,16.60,-40.95,51.00,-35.10,27.1
2026/05/04 21:45:55.20,IMU,165.04,808.59,-605.96,-8.23,9.24,11.31,-41.25,48.75,-36.90,26.6
2026/05/04 21:45:55.30,IMU,-45.90,901.86,-521.00,-30.44,13.15,-22.53,-40.95,51.00,-35.85,26.9
2026/05/04 21:45:55.40,IMU,245.12,721.68,-696.78,-40.86,56.82,-11.26,-42.30,50.85,-34.20,26.4
2026/05/04 21:45:55.50,IMU,42.48,894.53,-389.16,-53.64,-30.34,11.33,-44.25,52.50,-30.45,26.7
2026/05/04 21:45:55.60,IMU,43.46,982.91,-357.42,-19.08,-7.36,4.94,-43.65,52.65,-29.10,26.7
2026/05/04 21:45:55.70,IMU,85.94,942.38,-300.78,-41.37,-38.80,-4.32,-45.30,53.70,-28.95,26.7
2026/05/04 21:45:55.80,IMU,18.55,961.43,-307.13,22.04,4.15,-14.96,-43.20,54.00,-28.65,27.1
2026/05/04 21:45:55.92,IMU,9.77,934.08,-344.24,38.06,20.44,-15.44,-43.50,54.45,-31.50,27.0
2026/05/04 21:45:56.02,IMU,47.85,879.39,-369.14,21.85,13.61,-13.44,-41.55,53.10,-31.65,27.0
2026/05/04 21:45:56.12,IMU,-34.67,914.55,-440.92,8.47,-1.82,-6.42,-40.35,51.90,-33.45,27.0
2026/05/04 21:45:56.22,IMU,-52.25,908.20,-444.82,0.70,-4.55,0.44,-40.95,51.00,-34.35,26.8
2026/05/04 21:45:56.32,IMU,-37.60,898.93,-418.46,1.55,-6.15,-3.21,-38.55,52.65,-32.70,26.8
2026/05/04 21:45:56.42,IMU,-39.55,880.37,-413.57,20.52,5.78,-12.57,-40.65,52.50,-33.30,26.9
2026/05/04 21:45:56.52,IMU,-45.41,860.84,-464.84,26.47,9.31,-11.22,-40.20,51.75,-35.10,26.8
2026/05/04 21:45:56.62,IMU,-67.38,878.91,-485.35,-16.76,-2.85,6.10,-40.20,51.75,-34.80,26.9
2026/05/04 21:45:56.72,IMU,-67.38,860.84,-463.38,-16.36,-18.94,0.51,-38.70,51.75,-35.55,26.7
2026/05/04 21:45:56.82,IMU,-125.49,847.17,-595.70,-0.66,-15.69,-4.97,-39.15,52.95,-35.10,26.7
2026/05/04 21:45:56.92,IMU,-82.52,896.00,-486.33,-16.82,-15.10,16.67,-37.80,51.90,-36.00,26.7
2026/05/04 21:45:57.02,IMU,-126.46,914.06,-399.90,8.40,6.69,2.63,-38.40,51.30,-35.10,26.8
2026/05/04 21:45:57.13,IMU,-42.48,906.25,-458.50,17.09,18.45,-3.24,-37.50,51.90,-34.65,26.8
2026/05/04 21:45:57.23,IMU,-53.71,888.67,-492.19,2.24,7.89,10.80,-39.00,51.60,-35.25,26.9
2026/05/04 21:45:57.33,IMU,-62.50,854.98,-519.04,-22.50,101.16,1.77,-41.70,51.00,-33.60,26.8
2026/05/04 21:45:57.43,IMU,324.22,972.66,-251.95,-47.21,212.84,-23.24,-46.05,49.50,-31.80,26.6
2026/05/04 21:45:57.53,IMU,189.94,844.73,-515.63,9.65,-2.42,28.75,-49.35,50.25,-23.55,26.9
2026/05/04 21:45:57.63,IMU,186.52,867.68,-467.77,-3.74,-10.24,-8.64,-49.65,49.65,-24.15,26.7
2026/05/04 21:45:57.73,IMU,164.55,842.77,-437.99,9.98,25.77,13.23,-49.65,50.10,-23.10,26.8
2026/05/04 21:45:57.83,IMU,331.54,842.29,-475.10,-13.95,46.57,21.14,-52.95,48.15,-19.80,26.8
2026/05/04 21:45:57.93,IMU,481.45,784.67,-488.77,20.53,-3.29,18.75,-57.90,42.30,-13.50,27.0
2026/05/04 21:45:58.03,IMU,554.20,566.89,-515.63,80.78,56.63,-9.87,-58.65,38.10,-15.60,26.7
2026/05/04 21:45:58.13,IMU,552.73,673.83,-500.98,21.85,-43.59,28.56,-59.10,36.45,-17.25,26.9
2026/05/04 21:45:58.23,IMU,620.12,494.63,-467.77,-3.23,-28.46,27.70,-59.10,33.00,-20.10,26.9
2026/05/04 21:45:58.33,IMU,627.93,594.73,-543.95,-13.58,-9.05,7.46,-59.55,31.80,-20.55,26.6
2026/05/04 21:45:58.43,IMU,618.16,567.87,-587.40,-43.15,-26.40,7.98,-59.70,30.45,-20.25,27.0
2026/05/04 21:45:58.53,IMU,594.73,618.65,-451.66,-32.40,-10.30,-21.82,-59.70,31.95,-21.75,26.6
2026/05/04 21:45:58.63,IMU,569.82,627.44,-537.60,23.89,-13.19,-5.95,-57.90,31.95,-23.55,26.9
2026/05/04 21:45:58.73,IMU,555.66,574.22,-573.73,13.50,-7.41,4.51,-57.90,30.90,-23.25,26.9
2026/05/04 21:45:58.83,IMU,581.54,636.23,-558.59,20.91,8.43,4.71,-57.15,31.20,-22.50,26.7
2026/05/04 21:45:58.93,IMU,556.15,589.36,-549.80,9.34,-0.88,3.58,-60.60,28.80,-19.35,26.6
2026/05/04 21:45:59.03,IMU,574.71,560.55,-554.20,18.44,-8.57,2.73,-58.80,31.50,-23.10,26.8
2026/05/04 21:45:59.13,IMU,576.17,577.15,-580.08,9.72,4.34,-8.95,-59.10,31.50,-22.35,26.7
2026/05/04 21:45:59.23,IMU,587.40,522.95,-639.16,4.13,1.09,-2.82,-57.00,29.55,-24.45,27.1
2026/05/04 21:45:59.33,IMU,525.88,505.86,-614.26,19.24,-2.66,-3.64,-57.30,31.50,-23.40,26.8
2026/05/04 21:45:59.43,IMU,544.43,502.44,-617.19,-6.97,-7.02,-2.04,-58.20,30.90,-23.55,26.9
2026/05/04 21:45:59.53,IMU,524.90,558.11,-616.21,-26.31,-9.37,-3.65,-60.15,30.90,-24.60,26.9
2026/05/04 21:45:59.63,IMU,499.02,595.21,-634.28,-15.24,-33.98,9.10,-57.15,31.95,-25.35,27.0
2026/05/04 21:45:59.73,IMU,540.53,521.48,-601.07,14.53,-1.33,-5.73,-57.15,30.45,-25.80,26.8
2026/05/04 21:45:59.83,IMU,523.44,575.68,-628.91,4.05,2.79,3.16,-57.00,31.05,-25.95,27.1
2026/05/04 21:45:59.93,IMU,504.39,524.41,-641.60,4.56,3.84,-9.18,-62.55,27.60,-21.90,26.6
2026/05/04 21:46:00.05,IMU,568.36,549.32,-629.39,-12.41,-5.47,10.05,-56.55,31.80,-25.95,26.9
2026/05/04 21:46:00.15,IMU,519.04,602.05,-603.03,-25.92,-16.29,10.82,-57.90,29.40,-25.80,26.7
2026/05/04 21:46:00.25,IMU,547.36,521.97,-556.15,-0.23,-14.52,4.05,-57.15,30.90,-26.40,27.0
2026/05/04 21:46:00.35,IMU,500.00,582.52,-548.83,-45.08,-11.35,-14.27,-55.80,32.25,-28.80,26.5
2026/05/04 21:46:00.45,IMU,524.41,689.45,-668.46,-24.09,16.14,18.31,-57.00,33.00,-28.80,26.9
2026/05/04 21:46:00.55,IMU,482.91,695.80,-506.84,-25.52,21.77,-5.84,-54.90,32.70,-24.60,26.7
2026/05/04 21:46:00.65,IMU,548.83,663.57,-512.70,1.66,10.80,0.44,-56.40,34.35,-25.80,26.8
2026/05/04 21:46:00.75,IMU,532.71,651.86,-528.81,7.58,5.53,-7.18,-58.20,33.90,-25.05,27.0
2026/05/04 21:46:00.85,IMU,525.88,676.76,-486.82,6.64,1.89,-3.06,-57.30,33.00,-24.15,26.5
2026/05/04 21:46:00.95,IMU,472.66,681.15,-467.29,-26.15,-9.76,4.91,-60.75,31.65,-19.95,27.0
2026/05/04 21:46:01.05,IMU,512.21,716.31,-511.72,-21.25,-12.11,10.31,-57.15,35.10,-25.35,26.9
2026/05/04 21:46:01.15,IMU,531.25,700.68,-528.32,-28.12,4.55,3.94,-57.45,35.10,-25.35,26.9
2026/05/04 21:46:01.25,IMU,511.72,728.03,-461.91,-5.09,-31.23,-4.19,-56.25,35.55,-24.90,26.8
2026/05/04 21:46:01.35,IMU,429.20,618.65,-535.64,3.93,-35.03,9.12,-54.60,34.65,-29.40,26.9
2026/05/04 21:46:01.45,IMU,385.74,547.36,-515.63,18.36,-54.27,11.81,-53.85,35.40,-30.00,26.8
2026/05/04 21:46:01.55,IMU,383.30,653.32,-564.94,19.56,-38.52,-6.28,-53.25,35.55,-32.70,26.7
2026/05/04 21:46:01.66,IMU,368.65,728.52,-644.04,19.11,-33.02,7.64,-51.00,36.00,-33.90,27.0
2026/05/04 21:46:01.76,IMU,377.44,641.60,-534.67,32.65,-19.04,-12.22,-51.30,34.35,-34.80,26.7
2026/05/04 21:46:01.87,IMU,248.05,539.06,-787.11,-10.05,-4.00,-20.40,-50.55,33.15,-37.35,27.0
2026/05/04 21:46:01.97,IMU,338.87,766.60,-738.77,-27.59,14.96,-11.57,-48.30,33.90,-37.65,26.9
2026/05/04 21:46:02.07,IMU,307.62,652.34,-691.89,23.30,-6.16,9.63,-49.05,33.15,-37.35,26.8
2026/05/04 21:46:02.17,IMU,321.78,626.95,-664.55,9.35,-0.31,4.24,-50.10,31.65,-37.35,26.8
2026/05/04 21:46:02.27,IMU,265.63,496.09,-759.28,70.45,-30.70,-8.89,-49.65,31.50,-38.55,26.9
2026/05/04 21:46:02.37,IMU,302.25,608.40,-788.09,-60.92,18.67,1.06,-48.75,31.65,-37.95,26.6
2026/05/04 21:46:02.47,IMU,315.43,641.60,-674.80,-40.93,4.66,-6.01,-50.10,34.35,-37.35,27.0
2026/05/04 21:46:02.57,IMU,283.69,670.90,-705.08,0.16,2.88,-16.68,-50.10,34.65,-38.40,26.9
2026/05/04 21:46:02.67,IMU,263.67,652.83,-705.08,-6.05,-0.15,-21.19,-49.95,34.05,-37.80,26.8
2026/05/04 21:46:02.77,IMU,255.86,678.71,-655.76,-0.54,-8.71,-5.32,-48.90,37.20,-38.25,26.8
2026/05/04 21:46:02.87,IMU,254.88,693.85,-687.99,-7.35,-0.70,-0.07,-48.75,36.60,-37.95,26.9
2026/05/04 21:46:02.99,IMU,266.11,710.45,-671.39,-3.62,4.92,1.88,-51.60,33.15,-34.05,26.7
2026/05/04 21:46:03.09,IMU,249.51,703.13,-664.55,9.28,8.30,-0.10,-48.45,36.75,-37.50,26.7
2026/05/04 21:46:03.19,IMU,271.97,697.75,-682.62,-1.10,14.56,6.05,-48.75,35.10,-36.15,26.7
2026/05/04 21:46:03.29,IMU,336.43,831.54,-617.68,17.92,-5.48,12.21,-50.55,36.90,-35.10,26.8
2026/05/04 21:46:03.39,IMU,305.18,687.01,-565.43,-50.56,15.18,12.51,-49.65,37.95,-34.65,27.0
2026/05/04 21:46:03.49,IMU,322.27,797.36,-530.27,-22.69,1.84,-0.09,-51.60,38.10,-31.80,27.1
2026/05/04 21:46:03.59,IMU,314.45,785.64,-504.88,-4.31,4.31,1.40,-51.30,40.35,-32.55,26.8
2026/05/04 21:46:03.69,IMU,353.52,730.96,-564.94,-4.54,26.47,-4.07,-51.30,39.60,-32.25,27.0
2026/05/04 21:46:03.79,IMU,352.54,793.95,-458.01,1.44,-10.65,4.76,-52.20,39.00,-31.65,26.8
2026/05/04 21:46:03.89,IMU,346.19,772.95,-526.86,-0.47,9.56,-0.66,-51.30,40.05,-31.50,26.9
2026/05/04 21:46:03.99,IMU,366.70,750.49,-515.63,32.99,14.95,5.11,-51.75,39.45,-32.10,26.7
2026/05/04 21:46:04.09,IMU,378.91,776.86,-556.64,-0.98,7.82,-1.53,-52.20,37.95,-32.10,27.0
2026/05/04 21:46:04.19,IMU,361.82,761.23,-543.46,3.70,5.48,3.15,-52.95,37.50,-32.70,27.0
2026/05/04 21:46:04.29,IMU,389.65,730.96,-595.21,-10.36,4.53,10.02,-52.95,36.00,-32.70,26.7
2026/05/04 21:46:04.39,IMU,396.97,761.72,-495.61,13.91,-15.98,27.19,-53.25,36.45,-32.10,27.1
2026/05/04 21:46:04.49,IMU,438.48,678.22,-479.49,-5.69,24.21,7.48,-52.95,35.55,-30.90,26.7
2026/05/04 21:46:04.59,IMU,440.92,588.87,-462.89,0.39,20.16,-2.86,-53.85,35.40,-29.70,26.8
2026/05/04 21:46:04.69,IMU,428.71,739.26,-529.30,-1.05,23.53,16.22,-55.05,35.25,-30.30,26.9
2026/05/04 21:46:04.79,IMU,527.83,686.52,-493.65,3.76,27.35,21.24,-56.85,34.65,-27.60,27.1
2026/05/04 21:46:04.89,IMU,547.85,739.26,-339.84,-10.34,40.50,12.38,-58.50,32.55,-23.40,26.8
2026/05/04 21:46:04.99,IMU,581.54,817.87,-473.63,-4.77,26.11,-43.29,-59.40,32.40,-21.00,26.8
2026/05/04 21:46:05.09,IMU,589.84,712.89,-383.79,-4.80,72.11,0.73,-58.20,31.95,-21.00,26.9
2026/05/04 21:46:05.20,IMU,602.54,739.75,-218.26,-28.80,48.08,5.91,-59.55,33.75,-16.95,26.9
2026/05/04 21:46:05.30,IMU,679.69,648.44,-298.83,15.09,26.18,13.82,-60.15,31.65,-16.05,26.7
2026/05/04 21:46:05.40,IMU,669.43,649.90,-256.35,-5.76,-9.62,9.44,-60.15,31.65,-13.50,27.1
2026/05/04 21:46:05.50,IMU,623.05,703.13,-259.77,-1.82,19.42,8.95,-61.50,30.45,-14.25,27.0
2026/05/04 21:46:05.60,IMU,648.93,610.84,-289.55,-1.20,7.76,8.09,-60.75,29.70,-14.25,27.0
2026/05/04 21:46:05.70,IMU,665.53,668.95,-244.63,2.37,3.73,4.60,-60.45,30.45,-14.25,26.9
2026/05/04 21:46:05.80,IMU,693.36,578.13,-261.72,5.92,22.49,-2.66,-60.30,28.05,-12.90,27.0
2026/05/04 21:46:05.90,IMU,738.28,615.23,-246.09,-7.56,-14.73,6.21,-59.70,29.40,-11.25,26.9
2026/05/04 21:46:06.00,IMU,696.78,611.33,-270.02,-8.34,-47.30,-0.31,-61.35,29.10,-13.95,27.1
2026/05/04 21:46:06.10,IMU,651.37,632.32,-277.83,-3.41,-9.88,-5.35,-59.85,28.35,-17.25,26.8
2026/05/04 21:46:06.20,IMU,680.18,655.27,-377.93,2.50,-4.40,-9.57,-61.50,30.90,-17.40,26.9
2026/05/04 21:46:06.30,IMU,648.44,599.12,-308.59,-4.34,2.37,-8.37,-60.60,32.25,-16.20,27.0
2026/05/04 21:46:06.40,IMU,577.15,585.45,-300.78,3.94,23.65,-40.58,-60.60,31.80,-15.75,26.9
2026/05/04 21:46:06.50,IMU,663.57,846.68,-206.54,6.13,9.69,-36.60,-59.40,35.10,-14.25,26.8
2026/05/04 21:46:06.60,IMU,463.38,690.43,-212.40,9.09,6.53,-7.47,-58.80,37.50,-14.40,26.9
2026/05/04 21:46:06.70,IMU,571.78,747.07,-307.13,-4.76,-23.69,-11.48,-59.10,36.45,-13.65,26.9
2026/05/04 21:46:06.80,IMU,529.30,797.85,-299.32,-3.46,-4.24,-10.41,-58.80,36.75,-14.40,26.8
2026/05/04 21:46:06.90,IMU,542.97,727.05,-275.39,-6.34,-6.89,0.73,-58.20,37.65,-14.55,27.0
2026/05/04 21:46:07.02,IMU,571.78,768.55,-246.09,1.45,-7.37,6.97,-56.85,36.60,-14.85,27.1
2026/05/04 21:46:07.12,IMU,591.80,696.29,-294.92,-16.20,-9.95,17.74,-59.55,35.55,-15.75,27.0
2026/05/04 21:46:07.22,IMU,617.68,749.02,-300.29,-3.98,-12.60,8.15,-58.20,35.40,-16.35,27.0
2026/05/04 21:46:07.32,IMU,606.93,746.58,-257.81,2.24,-26.63,13.21,-58.65,35.10,-16.05,27.5
2026/05/04 21:46:07.42,IMU,595.21,697.27,-317.87,9.40,-56.23,14.98,-59.40,31.95,-18.90,27.3
2026/05/04 21:46:07.52,IMU,590.82,670.41,-392.09,-4.34,-58.95,12.77,-57.75,30.30,-23.10,27.0
2026/05/04 21:46:07.62,IMU,570.31,641.11,-455.57,3.89,-11.89,1.51,-57.45,31.65,-27.15,27.1
2026/05/04 21:46:07.72,IMU,581.05,652.83,-468.75,2.88,6.31,5.69,-57.15,30.15,-27.60,26.9
2026/05/04 21:46:07.82,IMU,564.94,651.86,-459.96,0.17,13.84,8.57,-57.15,30.45,-24.60,26.9
2026/05/04 21:46:07.92,IMU,539.55,658.69,-513.67,-3.64,87.05,-20.07,-57.45,30.15,-22.05,27.3
2026/05/04 21:46:08.02,IMU,565.92,704.59,-475.59,-15.08,15.85,3.64,-58.95,30.90,-19.65,27.0
2026/05/04 21:46:08.12,IMU,604.49,573.73,-348.14,9.00,27.16,-8.83,-58.50,31.50,-18.30,26.9
2026/05/04 21:46:08.22,IMU,589.36,719.24,-277.34,16.18,19.40,-5.99,-59.55,33.00,-17.25,27.2
2026/05/04 21:46:08.32,IMU,646.00,716.31,-392.09,28.32,13.28,-8.08,-60.45,33.15,-17.85,27.0
2026/05/04 21:46:08.42,IMU,610.35,701.17,-378.91,-3.53,-6.31,-0.73,-58.50,31.80,-17.25,27.2
2026/05/04 21:46:08.52,IMU,636.72,687.50,-359.38,16.45,-17.11,5.82,-58.65,32.40,-17.85,27.0
2026/05/04 21:46:08.62,IMU,689.45,707.52,-361.33,2.60,-7.21,-2.69,-58.80,31.80,-17.25,26.7
2026/05/04 21:46:08.72,IMU,605.96,660.16,-302.73,-13.03,-5.10,-9.74,-60.15,32.40,-19.20,27.2
2026/05/04 21:46:08.82,IMU,681.64,778.32,-361.82,-52.44,-25.65,44.50,-58.20,34.65,-19.20,27.0
2026/05/04 21:46:08.92,IMU,591.31,712.89,-253.42,10.15,-6.15,-28.17,-58.65,33.15,-19.20,27.1
2026/05/04 21:46:09.02,IMU,657.71,802.25,-329.59,0.69,15.60,49.70,-58.05,35.25,-21.15,26.7
2026/05/04 21:46:09.13,IMU,603.52,1124.02,-675.29,23.50,-46.21,-151.83,-58.20,33.90,-20.70,27.0
2026/05/04 21:46:09.23,IMU,539.06,767.09,-325.20,16.73,-8.58,-17.70,-57.75,33.30,-21.15,27.2
2026/05/04 21:46:09.33,IMU,463.87,821.29,-291.50,-19.23,-13.11,-36.00,-57.45,36.90,-21.75,26.8
2026/05/04 21:46:09.43,IMU,443.85,706.05,-350.10,23.89,-15.71,-38.05,-56.10,38.40,-19.20,27.3
2026/05/04 21:46:09.53,IMU,425.29,676.27,-413.57,38.63,-9.96,-22.08,-57.15,39.15,-21.45,27.0
2026/05/04 21:46:09.63,IMU,439.45,797.36,-446.78,14.11,-7.88,-20.53,-55.80,41.25,-23.10,27.0
2026/05/04 21:46:09.73,IMU,399.90,779.30,-475.10,32.99,-10.21,-14.61,-56.40,39.60,-25.80,26.9
2026/05/04 21:46:09.83,IMU,361.33,764.16,-495.12,2.63,-11.03,0.68,-55.05,42.45,-24.90,26.8
2026/05/04 21:46:09.93,IMU,362.30,775.39,-514.16,-3.28,-15.27,0.31,-53.85,41.10,-26.85,27.0
2026/05/04 21:46:10.03,IMU,327.15,805.66,-518.55,24.34,-25.20,9.17,-53.85,40.80,-27.60,27.3
2026/05/04 21:46:10.13,IMU,271.48,668.46,-553.71,4.98,-54.88,-1.98,-55.05,37.50,-27.75,27.0
2026/05/04 21:46:10.23,IMU,173.83,854.00,-708.98,35.84,-128.18,-135.67,-48.90,41.25,-33.45,27.1
2026/05/04 21:46:10.33,IMU,71.78,754.88,-438.96,-18.42,-0.57,-0.73,-44.40,49.65,-33.15,27.0
2026/05/04 21:46:10.43,IMU,69.82,809.57,-462.40,8.21,-12.56,-3.57,-43.65,48.15,-33.90,26.9
2026/05/04 21:46:10.53,IMU,20.51,867.19,-411.62,-46.28,26.47,-12.15,-44.85,50.85,-31.65,27.1
2026/05/04 21:46:10.63,IMU,-18.55,968.26,-387.70,-42.68,24.44,-13.85,-43.95,51.30,-26.85,26.9
2026/05/04 21:46:10.73,IMU,47.36,1032.23,-278.32,-39.56,4.18,61.56,-45.30,55.95,-25.35,27.0
2026/05/04 21:46:10.83,IMU,72.27,645.51,-314.45,-4.17,-38.79,51.70,-48.90,53.10,-21.90,27.2
2026/05/04 21:46:10.93,IMU,276.86,893.07,-392.58,-12.79,-0.84,-2.46,-50.70,52.65,-19.05,27.0
2026/05/04 21:46:11.03,IMU,114.26,956.05,-171.39,6.72,18.18,0.85,-48.00,52.95,-20.25,27.1
2026/05/04 21:46:11.15,IMU,130.86,988.28,-189.94,-8.34,9.31,2.67,-47.40,53.85,-18.00,27.0
2026/05/04 21:46:11.24,IMU,165.04,936.04,-119.14,-3.53,23.60,-16.48,-47.70,52.65,-18.30,26.7
2026/05/04 21:46:11.34,IMU,180.66,955.57,-141.60,5.66,4.10,1.87,-47.70,52.65,-15.75,27.0
2026/05/04 21:46:11.44,IMU,136.23,953.61,-172.85,5.06,1.06,1.08,-49.65,53.10,-17.25,26.8
2026/05/04 21:46:11.55,IMU,131.35,1033.69,-315.43,116.80,-28.42,1.96,-48.90,53.10,-19.05,26.8
2026/05/04 21:46:11.65,IMU,158.20,860.35,-330.57,43.15,-5.07,1.93,-48.45,51.60,-23.40,26.8
2026/05/04 21:46:11.75,IMU,134.28,836.43,-360.35,7.25,-16.60,11.98,-48.75,51.00,-25.35,27.0
2026/05/04 21:46:11.85,IMU,20.51,872.07,-836.43,28.08,-100.60,-68.73,-48.90,50.85,-27.75,26.8
2026/05/04 21:46:11.95,IMU,164.06,1122.56,-521.48,65.58,-67.15,-8.45,-46.35,51.15,-29.85,26.8
2026/05/04 21:46:12.05,IMU,36.13,774.90,-440.43,3.81,-4.76,1.93,-43.50,50.55,-31.20,26.8
2026/05/04 21:46:12.15,IMU,49.80,829.10,-464.84,-12.83,-12.82,-17.15,-44.10,49.65,-32.10,27.0
2026/05/04 21:46:12.25,IMU,13.18,978.52,-417.48,-2.13,-4.68,-3.06,-43.20,51.75,-32.55,26.8
2026/05/04 21:46:12.35,IMU,-8.30,838.38,-437.99,-6.39,-16.35,-0.72,-42.45,50.25,-31.20,26.8
2026/05/04 21:46:12.45,IMU,5.86,957.52,-403.32,-4.03,-16.02,3.47,-43.05,51.60,-31.65,27.0
2026/05/04 21:46:12.55,IMU,29.79,861.82,-453.13,-3.96,-1.90,8.18,-43.50,51.75,-33.00,26.7
2026/05/04 21:46:12.65,IMU,45.41,812.99,-380.86,4.15,16.60,-14.88,-42.60,51.90,-32.40,26.9
2026/05/04 21:46:12.75,IMU,-46.39,925.78,-455.57,-9.34,3.15,-3.43,-42.60,51.60,-32.10,26.9
2026/05/04 21:46:12.85,IMU,-41.99,893.55,-336.43,-9.34,5.34,-10.13,-42.45,51.75,-31.50,27.0
2026/05/04 21:46:12.97,IMU,-17.58,877.93,-489.75,4.99,13.92,-7.75,-41.70,52.95,-30.45,26.8
2026/05/04 21:46:13.07,IMU,-23.93,914.06,-469.73,23.99,15.62,-14.11,-42.00,52.20,-30.45,26.7
2026/05/04 21:46:13.17,IMU,-51.27,909.67,-469.73,7.78,22.29,0.42,-42.45,52.20,-30.45,26.9
2026/05/04 21:46:13.27,IMU,-21.48,799.80,-436.04,0.69,13.81,-10.54,-42.75,52.95,-30.00,26.9
2026/05/04 21:46:13.37,IMU,21.97,836.43,-483.89,-4.82,-1.95,-11.76,-42.60,52.65,-29.55,27.2
2026/05/04 21:46:13.47,IMU,-40.53,876.46,-456.54,-0.45,-0.17,-11.54,-41.25,53.70,-30.00,27.0
2026/05/04 21:46:13.57,IMU,-16.11,849.61,-437.99,-2.33,4.22,-5.98,-42.00,54.45,-31.20,26.8
2026/05/04 21:46:13.67,IMU,-53.71,878.42,-453.13,1.43,1.22,0.40,-41.55,52.65,-30.90,27.1
2026/05/04 21:46:13.77,IMU,-53.22,855.47,-448.73,-9.36,-1.38,0.32,-41.25,55.95,-30.00,26.7
2026/05/04 21:46:13.87,IMU,-50.29,970.21,-398.93,-31.75,-7.27,4.01,-40.20,55.20,-27.90,26.8
2026/05/04 21:46:13.97,IMU,-64.94,934.57,-413.09,-5.23,-2.56,-0.11,-41.70,54.75,-27.60,26.9
2026/05/04 21:46:14.07,IMU,-69.82,914.06,-417.97,-0.35,0.61,-0.87,-41.85,55.35,-29.55,26.6
2026/05/04 21:46:14.17,IMU,-101.56,895.02,-419.92,-7.92,-3.62,-1.83,-42.30,55.80,-29.10,26.7
2026/05/04 21:46:14.27,IMU,-55.18,916.02,-383.30,-3.82,-0.28,-1.24,-40.80,55.05,-27.30,26.7
2026/05/04 21:46:14.37,IMU,-65.43,918.46,-416.99,2.05,3.44,-2.26,-41.10,55.35,-28.80,27.0
2026/05/04 21:46:14.47,IMU,-62.01,896.97,-375.00,-0.18,-3.98,1.48,-41.70,55.50,-27.90,26.7
2026/05/04 21:46:14.57,IMU,-81.05,897.95,-416.50,0.05,-5.29,-0.02,-41.70,55.50,-28.20,26.8
2026/05/04 21:46:14.67,IMU,-94.24,893.07,-390.63,-2.33,-0.60,0.92,-40.95,55.95,-28.65,27.0
2026/05/04 21:46:14.77,IMU,-52.25,893.55,-383.79,0.53,-4.12,-1.07,-41.55,56.55,-27.75,26.5
2026/05/04 21:46:14.87,IMU,-44.43,899.41,-376.46,1.15,-1.42,6.59,-41.85,56.55,-29.10,26.7
2026/05/04 21:46:14.97,IMU,-43.95,917.48,-398.93,-6.29,-3.77,1.49,-40.80,56.55,-28.80,26.6
2026/05/04 21:46:15.07,IMU,-40.04,922.36,-346.68,-3.12,-2.75,6.29,-41.85,55.35,-28.05,26.9
2026/05/04 21:46:15.17,IMU,-57.62,926.27,-393.55,-3.50,-1.99,0.58,-42.00,56.25,-27.90,26.8
2026/05/04 21:46:15.27,IMU,-44.92,924.80,-369.63,0.54,1.15,9.10,-41.10,55.35,-27.75,26.9
2026/05/04 21:46:15.37,IMU,-69.34,918.95,-325.20,2.17,-9.31,2.46,-42.00,54.75,-28.20,26.9
2026/05/04 21:46:15.47,IMU,-43.95,918.46,-384.28,-0.15,-5.69,-0.15,-41.10,56.10,-28.50,26.9
2026/05/04 21:46:15.57,IMU,-70.31,943.36,-348.63,-7.16,-2.84,0.45,-40.80,56.10,-27.30,27.0
2026/05/04 21:46:15.67,IMU,8.30,886.23,-283.20,-14.76,-6.76,-0.29,-40.20,56.25,-27.15,26.8
2026/05/04 21:46:15.77,IMU,-73.73,924.80,-316.41,-3.44,-2.20,2.47,-40.35,55.80,-28.80,27.0
2026/05/04 21:46:15.87,IMU,-58.59,947.27,-305.18,0.47,6.73,2.55,-40.20,56.25,-28.20,26.9
2026/05/04 21:46:15.97,IMU,-82.03,945.31,-333.98,0.26,-7.02,1.76,-40.65,56.25,-27.90,26.8
2026/05/04 21:46:16.07,IMU,-79.10,961.91,-325.68,3.17,-6.34,-3.42,-40.20,57.45,-28.95,26.9
2026/05/04 21:46:16.18,IMU,-83.01,933.59,-355.47,9.18,5.89,13.42,-40.65,56.25,-28.65,26.9
2026/05/04 21:46:16.28,IMU,-55.18,929.69,-353.52,-1.91,5.03,-2.65,-40.20,56.25,-28.65,26.8
2026/05/04 21:46:16.38,IMU,-70.31,963.38,-349.61,4.97,5.96,6.50,-40.65,55.20,-27.15,26.9
2026/05/04 21:46:16.48,IMU,-38.57,920.41,-322.27,9.25,0.45,4.34,-40.95,54.45,-28.20,27.0
2026/05/04 21:46:16.58,IMU,-27.34,914.55,-351.07,0.86,1.44,-1.84,-40.20,54.75,-28.20,26.7
2026/05/04 21:46:16.68,IMU,-35.64,935.55,-358.89,-5.21,3.31,3.15,-41.10,54.15,-28.50,27.0
2026/05/04 21:46:16.78,IMU,-50.78,1060.55,-396.97,0.36,9.18,13.03,-42.30,54.60,-29.10,27.1
2026/05/04 21:46:16.88,IMU,9.28,959.47,-348.63,-4.43,4.66,12.31,-43.65,54.60,-28.05,27.1
2026/05/04 21:46:16.98,IMU,-3.91,896.97,-296.88,5.86,-15.62,-12.15,-42.45,53.70,-28.65,27.0
2026/05/04 21:46:17.09,IMU,-23.93,944.34,-367.68,1.53,-4.30,-0.68,-41.10,55.35,-29.55,27.1
2026/05/04 21:46:17.19,IMU,-2.93,937.01,-338.87,11.05,2.81,3.66,-41.25,54.00,-27.90,26.9
2026/05/04 21:46:17.29,IMU,16.60,910.16,-377.93,0.03,-0.20,0.15,-42.60,53.40,-29.55,26.9
2026/05/04 21:46:17.40,IMU,-12.70,917.48,-355.96,1.49,5.21,0.54,-41.10,53.40,-27.30,26.8
2026/05/04 21:46:17.50,IMU,-11.72,912.60,-380.37,1.62,-1.89,1.57,-41.55,54.60,-30.30,27.1
2026/05/04 21:46:17.60,IMU,-6.35,930.18,-368.65,-0.97,-2.37,-3.25,-42.45,53.25,-30.00,26.9
2026/05/04 21:46:17.70,IMU,-21.00,925.29,-367.68,-3.48,-0.11,-2.38,-42.60,54.15,-29.10,27.0
2026/05/04 21:46:17.80,IMU,143.55,950.68,-263.18,14.27,0.34,15.76,-42.00,54.75,-30.45,27.0
2026/05/04 21:46:17.90,IMU,22.95,894.04,-476.07,3.68,17.26,6.67,-41.85,53.85,-29.85,26.9
2026/05/04 21:46:18.00,IMU,-23.93,929.20,-366.70,4.31,5.40,-6.30,-41.55,53.40,-29.85,26.9
2026/05/04 21:46:18.10,IMU,-22.46,909.67,-385.74,-3.25,-1.93,-1.39,-42.45,52.50,-30.00,26.9
2026/05/04 21:46:18.20,IMU,-4.39,915.04,-383.30,0.31,-2.91,1.09,-42.60,53.40,-30.60,27.1
2026/05/04 21:46:18.30,IMU,-38.57,871.09,-368.16,7.44,-6.71,6.89,-42.60,53.40,-27.75,26.9
2026/05/04 21:46:18.40,IMU,237.79,805.66,374.51,19.25,-126.05,-14.52,-43.20,53.70,-28.95,27.0
2026/05/04 21:46:18.50,IMU,10.74,990.72,-183.59,-3.33,10.82,13.60,-43.35,50.85,-30.30,27.0
2026/05/04 21:46:18.60,IMU,49.32,858.89,-445.31,15.05,24.89,-7.66,-44.40,51.90,-31.35,26.8
2026/05/04 21:46:18.70,IMU,-27.83,892.58,-470.70,10.24,-5.11,14.11,-43.20,51.75,-31.50,26.8
2026/05/04 21:46:18.80,IMU,37.11,931.15,-494.63,-17.58,-5.50,-10.01,-44.70,51.00,-31.50,26.8
2026/05/04 21:46:18.91,IMU,46.39,912.60,-455.08,15.56,1.66,3.88,-43.35,50.85,-30.90,26.9
2026/05/04 21:46:19.01,IMU,514.16,1054.20,-1445.80,-250.14,250.13,-250.14,-46.80,49.05,-30.00,27.0
2026/05/04 21:46:19.11,IMU,417.48,1513.67,-485.84,-29.27,244.86,-129.50,-48.45,54.60,-6.00,26.8
2026/05/04 21:46:19.21,IMU,596.19,1341.31,-76.66,250.13,-250.14,250.13,-47.10,58.05,-3.60,27.0
2026/05/04 21:46:19.31,IMU,452.64,845.21,108.40,78.47,-10.07,-54.23,-52.35,48.30,-19.65,26.8
2026/05/04 21:46:19.41,IMU,117.19,1042.48,-177.73,-81.73,5.97,0.56,-50.40,52.35,-21.60,27.3
2026/05/04 21:46:19.51,IMU,153.81,947.75,-174.32,18.34,60.08,16.70,-48.30,51.30,-19.20,27.0
2026/05/04 21:46:19.61,IMU,245.61,1001.95,-236.82,4.31,-8.44,14.64,-49.05,54.00,-17.10,26.7
2026/05/04 21:46:19.71,IMU,229.00,976.56,-322.27,10.45,-7.50,-10.69,-49.95,52.35,-18.75,27.0
2026/05/04 21:46:19.81,IMU,120.12,1215.33,81.05,-6.00,54.72,-6.00,-47.70,54.60,-18.30,26.8
2026/05/04 21:46:19.91,IMU,12.21,883.30,-665.04,-18.15,-14.86,9.29,-48.00,54.45,-19.95,27.0
2026/05/04 21:46:20.01,IMU,21.97,841.80,-392.58,-15.82,34.84,2.39,-48.15,55.05,-18.75,26.9
2026/05/04 21:46:20.11,IMU,116.21,927.73,-228.03,-1.95,28.37,-5.38,-47.55,55.20,-16.35,26.9
2026/05/04 21:46:20.21,IMU,102.54,979.00,-96.68,-36.01,39.40,1.26,-48.00,56.70,-14.25,27.0
2026/05/04 21:46:20.33,IMU,113.77,921.88,-232.91,2.92,1.52,2.79,-47.10,56.10,-11.55,27.0
2026/05/04 21:46:20.43,IMU,330.08,749.02,-281.74,-16.10,-218.35,42.34,-46.05,56.70,-12.00,27.0
2026/05/04 21:46:20.53,IMU,193.36,1039.06,-121.09,1.83,19.19,1.17,-47.10,55.35,-10.35,26.8
2026/05/04 21:46:20.63,IMU,68.36,933.11,-127.44,-4.14,-4.35,-2.50,-47.55,57.00,-9.90,26.9
2026/05/04 21:46:20.73,IMU,137.70,1059.57,-161.13,-45.66,26.56,4.91,-45.15,56.55,-8.25,26.9
2026/05/04 21:46:20.83,IMU,132.32,1039.55,-115.23,-17.19,-11.02,-13.13,-46.05,57.00,-7.35,27.0
2026/05/04 21:46:20.93,IMU,91.31,1091.80,-207.03,8.01,-95.35,19.60,-45.00,56.70,-7.65,27.2
2026/05/04 21:46:21.03,IMU,123.05,838.87,-41.99,12.48,42.18,13.81,-47.10,57.30,-10.35,26.6
2026/05/04 21:46:21.13,IMU,85.94,913.09,-3.42,21.47,25.00,12.57,-47.10,56.55,-8.25,26.8
2026/05/04 21:46:21.23,IMU,-13.67,1034.18,-24.90,7.63,7.81,2.22,-46.05,57.00,-9.45,26.8
2026/05/04 21:46:21.33,IMU,-12.70,1008.79,-16.11,-40.79,-17.84,-4.07,-47.10,57.30,-8.25,27.1
2026/05/04 21:46:21.43,IMU,37.60,966.31,-94.73,-2.78,-9.37,-4.27,-45.60,58.05,-7.80,26.7
2026/05/04 21:46:21.53,IMU,127.44,1063.96,-96.19,-35.49,4.24,-3.33,-46.80,57.00,-8.40,27.1
2026/05/04 21:46:21.63,IMU,106.45,973.14,37.11,33.71,38.00,19.77,-46.05,57.00,-8.40,26.9
2026/05/04 21:46:21.73,IMU,-21.97,997.07,-11.23,-0.11,-3.12,-5.65,-45.30,57.45,-8.70,26.6
2026/05/04 21:46:21.83,IMU,83.50,963.38,9.77,-9.21,-10.07,-3.16,-45.60,56.55,-7.80,27.0
2026/05/04 21:46:21.93,IMU,12.21,986.82,-3.91,-4.07,-3.63,-3.79,-45.15,58.80,-10.05,27.0
2026/05/04 21:46:22.03,IMU,1.46,1001.95,-10.74,-3.35,2.01,-1.04,-43.05,57.60,-7.20,26.9
2026/05/04 21:46:22.13,IMU,31.74,1026.86,0.49,-6.92,-15.28,-9.68,-44.10,58.05,-8.25,26.8
2026/05/04 21:46:22.23,IMU,18.07,974.61,22.46,8.86,15.30,12.90,-43.50,59.40,-7.65,27.2
2026/05/04 21:46:22.34,IMU,8.79,973.14,-21.48,-2.85,-19.18,-13.53,-43.65,59.85,-6.75,27.0
2026/05/04 21:46:22.44,IMU,29.79,985.35,22.95,-11.76,-2.11,-5.96,-43.20,59.70,-8.40,27.2
2026/05/04 21:46:22.54,IMU,-36.13,991.21,109.86,-2.64,7.79,10.04,-43.05,59.85,-6.00,26.8
2026/05/04 21:46:22.64,IMU,-18.07,992.68,49.32,-0.71,3.70,1.88,-44.10,58.35,-5.40,27.0
2026/05/04 21:46:22.74,IMU,15.63,993.16,73.24,0.53,2.50,2.47,-43.35,59.55,-6.45,26.8
2026/05/04 21:46:22.84,IMU,-35.64,1018.55,41.50,-5.09,-1.82,0.06,-42.45,58.95,-6.30,27.0
2026/05/04 21:46:22.94,IMU,-21.97,1000.00,64.45,-6.88,-0.74,1.43,-44.25,59.40,-5.10,27.0
2026/05/04 21:46:23.05,IMU,-16.60,983.40,109.37,0.12,1.11,-4.36,-43.05,59.55,-5.40,27.0
2026/05/04 21:46:23.15,IMU,-1.46,1001.95,55.18,3.24,10.15,2.71,-43.65,59.10,-5.70,26.8
2026/05/04 21:46:23.25,IMU,1.46,979.49,98.14,-0.68,3.55,1.37,-41.85,60.30,-4.20,27.0
2026/05/04 21:46:23.35,IMU,-16.11,956.05,95.70,-2.90,2.71,0.02,-42.45,59.40,-5.55,27.0
2026/05/04 21:46:23.45,IMU,-19.53,1014.16,56.15,5.31,4.28,0.21,-41.70,58.95,-4.80,26.8
2026/05/04 21:46:23.55,IMU,-26.86,959.47,82.52,5.66,-0.99,5.30,-44.10,58.80,-4.95,26.8
2026/05/04 21:46:23.65,IMU,-26.86,970.21,89.36,9.12,0.07,4.76,-43.35,59.55,-5.40,27.0
2026/05/04 21:46:23.75,IMU,-4.88,989.75,76.17,-2.40,3.62,-2.38,-44.40,59.10,-5.70,27.0
2026/05/04 21:46:23.85,IMU,13.18,983.40,53.22,-1.64,0.41,-0.40,-44.40,59.10,-6.00,27.0
2026/05/04 21:46:23.95,IMU,13.67,980.47,59.08,-3.99,1.14,-1.24,-44.25,58.20,-6.30,26.7
2026/05/04 21:46:24.05,IMU,10.74,978.52,62.99,-0.81,-0.61,0.49,-44.40,59.10,-5.70,27.0
2026/05/04 21:46:24.16,IMU,0.49,1022.46,52.25,2.29,0.97,1.87,-43.65,58.80,-6.75,27.0
2026/05/04 21:46:24.26,IMU,13.18,940.43,79.59,3.29,-0.50,0.47,-44.70,57.90,-6.00,26.9
2026/05/04 21:46:24.36,IMU,13.18,990.72,51.27,2.45,5.47,4.81,-43.95,60.15,-4.80,26.9
2026/05/04 21:46:24.46,IMU,27.34,1006.84,31.25,1.23,0.85,-0.70,-44.40,58.35,-6.45,27.0
2026/05/04 21:46:24.56,IMU,-25.88,991.21,46.88,-3.56,0.98,0.54,-44.70,58.20,-6.90,26.8
2026/05/04 21:46:24.66,IMU,42.48,961.43,85.45,3.64,8.58,-5.15,-44.40,58.80,-6.00,27.0
2026/05/04 21:46:24.76,IMU,-3.42,963.38,21.97,3.99,20.35,3.90,-44.85,60.30,-5.40,26.8
2026/05/04 21:46:24.87,IMU,-24.41,1003.91,45.90,2.27,9.69,-6.72,-42.60,60.75,-3.60,26.8
2026/05/04 21:46:24.97,IMU,-28.32,963.87,95.21,-2.24,11.96,-2.85,-42.30,60.30,-4.65,26.8
2026/05/04 21:46:25.07,IMU,-28.32,941.89,100.10,-1.89,0.74,-2.76,-42.30,61.05,-3.60,27.0
2026/05/04 21:46:25.17,IMU,-84.96,996.58,68.36,1.08,11.21,-0.50,-40.80,60.30,-3.90,26.9
2026/05/04 21:46:25.27,IMU,-112.30,992.68,67.38,-7.83,-7.16,-11.17,-41.70,60.90,-2.25,27.1
2026/05/04 21:46:25.37,IMU,-101.56,981.93,88.87,-3.97,0.29,-2.75,-40.80,60.75,-2.40,26.8
2026/05/04 21:46:25.47,IMU,-23.93,941.89,89.84,-1.09,-1.84,-3.21,-41.70,60.90,-3.75,27.0
2026/05/04 21:46:25.57,IMU,-73.73,998.05,77.64,9.79,16.05,9.21,-40.05,60.30,-3.90,27.1
2026/05/04 21:46:25.67,IMU,-73.73,1002.44,82.03,4.18,8.54,4.05,-41.70,61.95,-2.25,26.9
2026/05/04 21:46:25.77,IMU,-105.47,979.00,86.91,15.11,11.64,21.28,-41.85,60.75,-3.90,27.1
2026/05/04 21:46:25.87,IMU,-50.78,977.05,56.64,24.62,18.44,16.06,-41.70,59.40,-4.05,26.8
2026/05/04 21:46:25.97,IMU,-40.53,962.89,28.32,-0.60,1.88,7.82,-41.85,58.35,-4.20,27.3
2026/05/04 21:46:26.07,IMU,0.49,997.07,-7.32,-9.05,0.02,-4.82,-43.95,58.95,-3.00,27.0
2026/05/04 21:46:26.18,IMU,19.53,989.26,-26.86,1.29,9.59,4.51,-43.35,57.60,-3.15,26.8
2026/05/04 21:46:26.28,IMU,40.04,1006.84,-1.95,4.56,15.73,11.27,-43.95,59.40,-4.05,27.1
2026/05/04 21:46:26.38,IMU,14.16,984.86,16.11,-5.73,-0.56,-5.15,-44.40,59.85,-2.85,27.0
2026/05/04 21:46:26.48,IMU,23.93,996.09,30.76,-1.86,0.76,-5.11,-45.00,58.20,-3.00,27.1
2026/05/04 21:46:26.58,IMU,6.35,985.35,1.95,-4.33,3.27,2.76,-43.05,59.10,-3.15,26.8
2026/05/04 21:46:26.68,IMU,12.70,985.35,26.37,-2.05,-0.81,-1.52,-44.10,58.05,-3.15,27.0
2026/05/04 21:46:26.78,IMU,27.34,984.86,36.13,-2.63,1.38,-0.63,-44.40,57.30,-3.60,27.0
2026/05/04 21:46:26.88,IMU,0.49,986.33,53.22,-3.06,1.10,-1.47,-43.65,58.05,-2.10,27.1
2026/05/04 21:46:26.98,IMU,12.21,999.02,25.88,1.87,-0.26,-2.73,-44.10,60.75,-1.05,26.8
2026/05/04 21:46:27.08,IMU,26.86,990.72,37.11,0.48,-0.15,0.54,-44.10,58.05,-2.10,26.7
2026/05/04 21:46:27.18,IMU,15.63,985.35,21.00,-1.32,0.74,-0.89,-43.05,59.55,-2.85,27.1
2026/05/04 21:46:27.28,IMU,-5.86,991.70,57.62,-1.71,-1.77,-1.55,-45.15,59.55,-2.40,27.1
2026/05/04 21:46:27.38,IMU,-2.93,992.68,50.78,0.86,3.02,0.63,-43.50,59.40,-2.25,26.6
2026/05/04 21:46:27.48,IMU,6.35,980.47,50.78,1.28,-1.56,-1.77,-46.80,57.45,1.20,27.0
2026/05/04 21:46:27.58,IMU,4.39,995.61,43.95,1.69,0.77,-2.15,-43.95,57.90,-1.50,26.8
2026/05/04 21:46:27.68,IMU,-9.28,974.12,63.96,1.10,0.05,0.89,-43.95,60.15,-3.30,26.8
2026/05/04 21:46:27.78,IMU,-8.79,994.63,43.46,-2.66,-0.05,1.21,-45.00,58.95,-3.00,26.9
2026/05/04 21:46:27.88,IMU,59.57,972.17,83.50,4.21,-2.08,10.33,-44.70,59.70,-2.70,27.1
2026/05/04 21:46:27.98,IMU,1.46,980.47,74.71,-0.60,3.10,0.95,-44.70,57.45,-2.25,26.9
2026/05/04 21:46:28.08,IMU,15.63,973.14,42.48,-2.24,-0.23,3.00,-44.10,59.10,-1.80,27.0
2026/05/04 21:46:28.18,IMU,-8.79,990.72,46.88,1.82,1.28,2.13,-43.50,60.45,-1.95,26.9
2026/05/04 21:46:28.28,IMU,17.09,975.10,66.41,-2.12,-0.08,0.89,-43.95,58.20,-2.70,27.0
2026/05/04 21:46:28.38,IMU,2.93,998.54,69.34,-0.55,1.76,2.37,-44.70,57.90,-0.90,26.8
2026/05/04 21:46:28.49,IMU,19.53,1002.93,58.11,1.52,1.58,-2.95,-47.70,56.85,2.40,26.9
2026/05/04 21:46:28.59,IMU,19.04,976.56,69.34,1.98,2.14,0.50,-44.25,58.65,-1.20,26.9
2026/05/04 21:46:28.69,IMU,-1.95,1000.00,62.50,0.76,0.60,-0.57,-44.10,58.35,-1.35,26.8
2026/05/04 21:46:28.79,IMU,0.00,1001.46,61.04,0.95,5.06,1.22,-43.95,58.65,-2.70,27.1
2026/05/04 21:46:28.89,IMU,7.32,989.75,59.57,-2.39,1.97,1.58,-43.20,58.20,-2.25,26.9
2026/05/04 21:46:28.99,IMU,4.39,987.30,52.25,-2.02,0.40,1.31,-43.95,56.70,-2.25,27.0
2026/05/04 21:46:29.09,IMU,25.88,958.01,59.57,1.96,1.69,0.76,-44.70,58.35,-1.05,26.7
2026/05/04 21:46:29.19,IMU,8.79,955.57,76.17,-2.14,-3.37,-2.13,-44.25,57.90,-3.00,26.8
2026/05/04 21:46:29.29,IMU,27.34,998.05,32.71,2.08,1.38,-2.39,-44.85,59.55,-2.10,27.1
2026/05/04 21:46:29.39,IMU,19.04,973.14,71.29,0.43,-0.38,1.78,-43.65,58.05,-0.60,27.1
2026/05/04 21:46:29.51,IMU,16.11,998.54,47.85,-2.51,1.73,1.73,-46.50,57.45,2.70,26.9
2026/05/04 21:46:29.61,IMU,19.53,990.72,42.97,2.25,2.00,2.67,-44.25,58.20,-1.95,27.0
2026/05/04 21:46:29.71,IMU,-0.49,966.31,58.59,-0.07,1.42,1.20,-44.25,57.90,-1.50,27.0
2026/05/04 21:46:29.81,IMU,21.00,986.82,50.29,1.73,0.76,-1.23,-44.25,58.20,-2.25,26.9
2026/05/04 21:46:29.91,IMU,27.83,972.66,45.41,0.89,3.82,1.05,-44.40,58.80,-1.80,27.0
2026/05/04 21:46:30.01,IMU,22.95,986.82,63.96,1.01,1.34,-0.79,-44.85,58.35,-2.85,26.8
2026/05/04 21:46:30.11,IMU,18.07,1000.00,51.76,2.32,-0.42,0.01,-43.35,58.35,-1.35,26.9
2026/05/04 21:46:30.21,IMU,19.04,959.96,48.83,-1.70,-0.67,-0.72,-43.35,58.35,-1.80,26.9
2026/05/04 21:46:30.31,IMU,20.02,973.14,76.17,-0.82,-0.53,0.21,-44.10,58.35,-2.40,27.0
2026/05/04 21:46:30.41,IMU,8.30,975.10,46.88,-0.75,-0.34,2.11,-44.85,58.80,-2.40,26.9
2026/05/04 21:46:30.51,IMU,15.63,994.14,66.89,-0.02,3.53,-1.40,-45.30,59.40,-1.50,26.8
2026/05/04 21:46:30.61,IMU,35.16,999.02,66.41,2.76,2.80,2.01,-43.65,58.80,-1.80,27.0
2026/05/04 21:46:30.71,IMU,5.86,987.30,51.27,0.87,4.81,8.18,-44.40,56.85,-0.60,26.7
2026/05/04 21:46:30.81,IMU,50.29,981.93,66.89,3.44,-0.21,3.15,-45.30,58.20,-2.70,26.8
2026/05/04 21:46:30.91,IMU,22.95,1000.00,23.93,-0.24,-1.55,4.11,-44.85,57.60,-1.80,26.8
2026/05/04 21:46:31.01,IMU,60.55,973.14,79.10,3.96,-2.37,0.69,-44.70,58.20,-2.25,26.8
2026/05/04 21:46:31.11,IMU,47.36,985.84,45.90,-1.50,2.10,0.81,-45.60,58.35,-1.05,27.0
2026/05/04 21:46:31.21,IMU,21.97,1012.70,51.27,2.67,-0.30,1.30,-45.00,57.90,-1.50,27.0
2026/05/04 21:46:31.31,IMU,47.36,981.93,41.02,-4.53,-0.62,4.09,-43.65,58.05,-2.10,27.0
2026/05/04 21:46:31.41,IMU,47.85,1018.07,38.09,0.48,3.99,1.32,-45.75,58.65,-1.20,26.8
2026/05/04 21:46:31.51,IMU,35.64,942.87,62.01,0.03,-1.52,0.77,-45.60,58.80,-1.80,27.0
2026/05/04 21:46:31.61,IMU,36.13,1044.43,35.16,-2.20,-0.89,-0.83,-44.70,58.65,-0.15,27.1
2026/05/04 21:46:31.72,IMU,69.34,960.94,68.85,-1.98,2.40,-0.12,-44.85,57.60,0.00,27.0
2026/05/04 21:46:31.82,IMU,56.64,995.61,60.55,-0.03,3.00,-1.44,-44.25,56.70,-0.45,27.0
2026/05/04 21:46:31.92,IMU,39.06,957.03,74.22,0.15,-4.47,-0.97,-45.15,58.05,-1.80,26.9
2026/05/04 21:46:32.02,IMU,74.22,967.29,68.36,-3.94,-2.88,-0.83,-44.10,57.60,-1.05,27.0
2026/05/04 21:46:32.12,IMU,48.83,973.14,75.68,5.47,4.78,7.61,-44.40,58.35,-0.60,27.1
2026/05/04 21:46:32.22,IMU,42.48,962.40,34.67,2.05,17.79,5.82,-45.75,55.95,-1.20,26.9
2026/05/04 21:46:32.32,IMU,43.46,958.50,89.36,-7.91,13.02,11.66,-44.40,56.85,-1.05,26.9
2026/05/04 21:46:32.42,IMU,43.46,927.25,104.98,6.29,-8.75,4.51,-45.90,56.85,1.05,26.8
2026/05/04 21:46:32.52,IMU,134.77,1051.27,62.01,-1.02,-15.88,0.73,-45.90,56.10,1.05,27.2
2026/05/04 21:46:32.62,IMU,126.46,961.43,42.97,14.26,1.20,8.31,-48.15,54.60,-1.80,27.0
2026/05/04 21:46:32.72,IMU,152.83,1022.95,43.46,-45.98,14.37,12.11,-47.70,54.60,-0.60,27.0
2026/05/04 21:46:32.82,IMU,260.74,933.59,204.10,-89.64,-46.40,45.35,-50.55,49.50,4.05,27.2
2026/05/04 21:46:32.92,IMU,358.89,800.78,446.78,-136.48,-30.23,49.34,-54.75,43.20,4.65,27.0
2026/05/04 21:46:33.02,IMU,330.08,978.52,570.31,-126.71,-26.92,-3.75,-55.05,37.20,7.80,27.0
2026/05/04 21:46:33.12,IMU,523.44,544.43,641.60,-36.05,-7.89,-0.21,-56.25,31.50,6.45,27.1
2026/05/04 21:46:33.22,IMU,536.62,562.01,690.43,9.35,-16.97,-33.33,-57.00,32.25,4.95,27.1
2026/05/04 21:46:33.32,IMU,660.64,816.41,454.59,-1.33,-1.66,2.15,-57.00,34.80,2.85,27.1
2026/05/04 21:46:33.42,IMU,550.78,636.23,531.25,70.15,-16.62,29.04,-55.35,35.10,3.75,27.0
2026/05/04 21:46:33.52,IMU,407.71,450.20,700.68,-74.36,42.11,-51.84,-56.85,35.10,3.75,27.1
2026/05/04 21:46:33.62,IMU,485.35,612.30,646.48,-104.25,8.28,-46.89,-57.00,34.80,4.20,27.1
2026/05/04 21:46:33.72,IMU,279.30,583.50,587.40,-26.78,31.92,-15.02,-54.90,33.15,5.10,27.2
2026/05/04 21:46:33.82,IMU,448.73,408.69,598.14,-0.22,46.36,-10.11,-56.10,32.70,6.90,27.3
2026/05/04 21:46:33.92,IMU,438.48,616.21,877.44,-82.53,18.89,10.71,-53.40,34.35,8.70,27.0
2026/05/04 21:46:34.02,IMU,452.15,453.61,537.60,-44.88,18.23,12.53,-53.85,31.95,11.25,27.4
2026/05/04 21:46:34.12,IMU,500.98,611.33,1045.41,37.97,-76.24,-29.08,-54.00,34.50,11.85,27.4
2026/05/04 21:46:34.22,IMU,402.83,561.52,556.15,-4.77,-18.69,-1.10,-55.80,36.75,6.75,27.1
2026/05/04 21:46:34.32,IMU,269.53,479.98,729.00,2.00,-22.99,1.78,-54.45,37.20,9.30,27.5
2026/05/04 21:46:34.42,IMU,233.40,613.28,813.48,21.86,20.85,-15.64,-55.35,40.05,9.45,27.2
2026/05/04 21:46:34.52,IMU,331.54,615.23,734.86,32.04,12.81,-11.15,-52.95,39.45,10.80,27.3
2026/05/04 21:46:34.62,IMU,330.57,685.06,846.68,1.15,16.22,19.13,-52.80,39.15,10.95,27.1
2026/05/04 21:46:34.72,IMU,172.85,490.72,701.17,-14.52,39.44,1.69,-52.20,37.50,11.55,27.2
2026/05/04 21:46:34.82,IMU,141.60,459.96,821.78,-29.29,48.60,-3.82,-49.95,39.00,13.95,27.3
2026/05/04 21:46:34.94,IMU,92.29,558.59,807.13,-4.82,69.98,11.18,-49.80,38.10,16.35,27.2
2026/05/04 21:46:35.04,IMU,152.34,480.47,702.64,5.16,13.49,9.51,-47.55,36.90,17.40,27.3
2026/05/04 21:46:35.14,IMU,107.91,636.23,826.66,-3.50,19.37,-7.56,-48.00,37.35,18.90,27.3
2026/05/04 21:46:35.24,IMU,174.80,596.19,776.37,-4.47,-6.24,-5.15,-46.50,37.35,18.90,27.3
2026/05/04 21:46:35.34,IMU,134.77,594.24,854.49,-4.64,-12.74,8.03,-49.35,39.60,18.15,27.3
2026/05/04 21:46:35.44,IMU,168.46,572.75,764.65,11.00,-8.60,2.76,-48.45,38.25,17.25,27.0
2026/05/04 21:46:35.54,IMU,100.59,656.74,841.80,41.70,6.69,21.17,-48.90,40.20,16.20,26.9
2026/05/04 21:46:35.64,IMU,81.54,648.93,875.00,-3.89,1.02,-4.45,-49.35,37.65,18.90,27.3
2026/05/04 21:46:35.74,IMU,208.98,577.15,602.54,25.52,5.63,7.23,-48.45,41.25,15.45,27.0
2026/05/04 21:46:35.84,IMU,177.73,691.41,755.86,-1.35,6.60,-1.63,-48.75,41.10,16.05,27.4
2026/05/04 21:46:35.94,IMU,112.79,637.21,737.30,-8.55,14.81,-6.21,-47.10,41.70,15.75,27.3
2026/05/04 21:46:36.04,IMU,95.70,655.76,784.18,-13.57,16.65,-11.60,-46.50,42.30,17.40,27.3
2026/05/04 21:46:36.14,IMU,84.96,611.82,719.73,1.84,9.82,-5.96,-46.80,41.10,19.65,27.5
2026/05/04 21:46:36.24,IMU,72.75,593.75,737.79,9.31,2.05,-5.40,-45.90,42.00,18.30,27.2
2026/05/04 21:46:36.34,IMU,44.92,646.48,750.98,8.33,6.34,0.02,-45.15,41.25,19.05,27.5
2026/05/04 21:46:36.44,IMU,13.67,628.91,765.63,6.47,1.73,-1.30,-45.30,41.85,18.90,27.3
2026/05/04 21:46:36.54,IMU,48.34,636.72,708.01,-5.69,1.88,-3.31,-44.10,43.20,17.55,27.1
2026/05/04 21:46:36.65,IMU,49.32,666.02,743.65,2.80,1.74,-0.55,-48.30,41.85,23.25,27.1
2026/05/04 21:46:36.75,IMU,37.60,668.46,742.19,10.74,-0.63,10.26,-45.15,41.70,19.05,27.2
2026/05/04 21:46:36.85,IMU,59.57,666.99,743.16,0.38,2.73,10.47,-45.75,43.35,18.45,27.4
2026/05/04 21:46:36.95,IMU,87.40,656.74,696.29,-0.30,-5.96,4.76,-47.40,41.25,17.55,27.4
2026/05/04 21:46:37.05,IMU,106.93,660.16,680.66,-5.37,-1.08,7.00,-47.70,41.25,15.75,27.2
2026/05/04 21:46:37.15,IMU,108.89,649.90,740.23,1.07,1.61,9.05,-47.10,42.45,16.95,26.9
2026/05/04 21:46:37.25,IMU,76.66,682.62,715.82,5.47,5.31,6.14,-46.80,40.05,17.10,27.5
2026/05/04 21:46:37.35,IMU,134.28,671.88,713.38,-6.39,6.47,-2.60,-46.50,41.10,17.10,27.0
2026/05/04 21:46:37.45,IMU,131.84,594.24,658.20,-0.31,56.12,26.57,-48.15,39.75,18.00,27.0
2026/05/04 21:46:37.55,IMU,72.27,658.20,799.32,-13.31,40.68,19.21,-45.00,38.40,19.20,27.3
2026/05/04 21:46:37.65,IMU,76.17,608.40,790.53,-5.34,4.13,3.62,-43.50,37.65,22.05,27.3
2026/05/04 21:46:37.75,IMU,65.92,625.49,756.35,0.59,-3.06,3.10,-45.15,37.20,21.60,27.3
2026/05/04 21:46:37.85,IMU,85.94,613.28,735.35,-14.98,20.16,4.20,-44.25,36.90,20.25,27.1
2026/05/04 21:46:37.95,IMU,88.38,645.51,792.97,17.47,-16.89,5.21,-45.00,36.15,22.05,27.2
2026/05/04 21:46:38.05,IMU,63.96,619.63,737.79,20.74,22.49,12.04,-46.35,36.75,21.15,27.1
2026/05/04 21:46:38.15,IMU,104.49,667.97,751.46,0.40,-4.99,-6.64,-43.05,37.20,20.85,27.1
2026/05/04 21:46:38.25,IMU,162.60,731.93,682.62,0.14,-13.55,-17.58,-44.70,38.85,20.70,27.2
2026/05/04 21:46:38.35,IMU,70.31,740.23,743.16,-3.27,-13.64,10.85,-45.00,38.10,20.25,26.8
2026/05/04 21:46:38.45,IMU,130.37,679.20,731.93,-10.47,-13.21,-1.98,-45.60,37.50,19.80,27.3
2026/05/04 21:46:38.55,IMU,166.50,617.68,664.55,-77.27,-12.03,-17.33,-46.05,37.35,20.70,27.0
2026/05/04 21:46:38.65,IMU,96.19,661.13,814.94,-47.24,30.93,12.81,-45.15,33.00,23.10,27.2
2026/05/04 21:46:38.75,IMU,120.61,494.63,832.03,-24.61,0.79,-0.70,-44.40,31.80,23.10,27.3
2026/05/04 21:46:38.86,IMU,104.98,483.89,878.42,-4.11,0.69,0.34,-44.70,28.65,23.55,27.3
2026/05/04 21:46:38.96,IMU,98.14,467.77,860.84,-4.15,11.84,1.08,-44.40,29.10,23.70,27.3
2026/05/04 21:46:39.07,IMU,81.05,456.54,869.63,-6.19,2.76,4.98,-43.20,28.95,24.30,27.1
2026/05/04 21:46:39.17,IMU,60.06,452.15,859.86,-7.27,-2.30,-3.17,-43.35,28.05,24.45,27.1
2026/05/04 21:46:39.27,IMU,23.93,457.03,970.70,1.19,18.09,-2.56,-42.45,30.15,25.35,27.3
2026/05/04 21:46:39.37,IMU,9.77,447.75,881.84,-4.05,16.94,-12.69,-40.80,30.30,25.20,27.1
2026/05/04 21:46:39.47,IMU,10.25,429.69,890.63,3.19,13.41,-9.93,-42.00,27.45,25.35,27.3
2026/05/04 21:46:39.57,IMU,39.06,469.24,848.14,4.88,-21.64,-6.84,-41.10,29.10,25.20,27.2
2026/05/04 21:46:39.67,IMU,27.83,460.94,835.94,1.54,-10.94,-5.03,-41.25,30.90,25.35,26.9
2026/05/04 21:46:39.77,IMU,14.16,470.21,898.44,3.50,-6.50,-1.07,-40.05,29.10,25.95,27.3
2026/05/04 21:46:39.87,IMU,1.95,475.59,884.28,1.53,-7.78,4.06,-40.65,30.45,26.40,27.3
2026/05/04 21:46:39.97,IMU,9.77,456.05,872.56,3.14,0.50,3.43,-41.10,30.30,26.25,27.2
2026/05/04 21:46:40.07,IMU,7.81,466.31,868.16,0.03,4.69,-2.47,-40.95,30.90,23.55,27.3
2026/05/04 21:46:40.17,IMU,-16.60,466.31,876.46,1.68,8.30,-4.94,-40.05,30.75,25.20,27.2
2026/05/04 21:46:40.27,IMU,-13.67,475.59,889.16,-4.95,7.59,0.46,-41.25,30.90,26.10,27.1
2026/05/04 21:46:40.37,IMU,9.77,480.47,865.72,0.93,7.37,-5.93,-40.05,31.80,23.70,27.2
2026/05/04 21:46:40.47,IMU,-50.29,465.33,863.28,1.37,4.64,0.49,-40.35,30.75,25.95,27.2
2026/05/04 21:46:40.57,IMU,-41.02,490.72,865.23,5.02,3.85,4.05,-39.45,31.20,26.10,27.1
2026/05/04 21:46:40.67,IMU,-62.50,488.28,876.95,2.82,-2.98,0.76,-38.70,31.65,25.35,27.1
2026/05/04 21:46:40.77,IMU,-36.62,466.31,865.23,7.36,-4.95,3.36,-39.15,31.95,25.80,27.3
2026/05/04 21:46:40.88,IMU,-57.62,492.68,882.32,3.34,-3.34,1.55,-39.45,31.20,25.80,27.3
2026/05/04 21:46:40.98,IMU,-57.62,529.30,899.90,-2.31,-17.77,-1.16,-40.80,31.50,26.25,27.1
2026/05/04 21:46:41.08,IMU,-18.07,512.21,838.38,16.60,-29.44,-0.17,-42.60,31.50,25.50,27.3
2026/05/04 21:46:41.18,IMU,21.48,444.82,841.80,12.97,-42.34,3.92,-43.05,34.05,23.10,26.9
2026/05/04 21:46:41.28,IMU,156.74,560.06,820.80,17.44,-30.26,6.35,-44.85,33.75,21.15,27.3
2026/05/04 21:46:41.38,IMU,115.72,560.55,846.19,-0.68,-26.17,-0.78,-45.75,34.35,21.75,27.1
2026/05/04 21:46:41.48,IMU,162.60,568.36,749.51,6.66,-25.37,-0.93,-47.70,33.75,19.80,27.0
2026/05/04 21:46:41.58,IMU,164.06,598.14,780.76,12.51,-30.29,-8.12,-48.90,35.25,17.55,26.8
2026/05/04 21:46:41.68,IMU,192.87,561.04,771.00,13.90,-39.31,-1.37,-48.90,34.80,17.25,26.9
2026/05/04 21:46:41.78,IMU,229.98,554.20,765.14,-18.51,22.53,4.00,-49.65,35.25,16.50,27.3
2026/05/04 21:46:41.88,IMU,141.60,554.69,855.96,8.99,7.70,2.89,-49.35,34.35,17.10,27.5
2026/05/04 21:46:41.99,IMU,188.96,501.95,795.90,-0.08,-3.36,5.82,-49.80,32.70,16.05,27.0
2026/05/04 21:46:42.09,IMU,195.31,541.50,776.86,-2.34,-4.52,-0.40,-50.10,32.40,18.15,26.8
2026/05/04 21:46:42.19,IMU,170.41,491.70,880.37,-2.28,-1.07,-0.75,-50.10,32.70,17.40,27.3
2026/05/04 21:46:42.29,IMU,179.69,506.35,784.67,-3.97,15.82,-4.33,-48.45,32.55,19.05,27.2
2026/05/04 21:46:42.39,IMU,162.60,503.91,836.43,3.41,12.37,-2.88,-49.20,34.50,18.75,26.7
2026/05/04 21:46:42.49,IMU,130.37,526.37,839.84,11.85,-0.18,0.96,-48.45,33.75,19.05,27.1
2026/05/04 21:46:42.59,IMU,132.32,527.34,839.84,0.18,-1.42,-0.50,-46.65,34.05,20.10,27.0
2026/05/04 21:46:42.69,IMU,132.81,532.71,830.57,3.99,-2.03,0.44,-47.25,35.10,19.95,27.1
2026/05/04 21:46:42.79,IMU,130.86,526.86,835.45,0.69,-0.44,2.79,-50.40,32.55,22.35,26.9
2026/05/04 21:46:42.89,IMU,111.33,487.30,812.50,14.46,-18.14,3.01,-47.25,35.10,18.45,27.2
2026/05/04 21:46:42.99,IMU,182.13,530.76,786.62,41.85,-25.34,-0.96,-49.20,36.75,16.50,27.2
2026/05/04 21:46:43.09,IMU,210.45,650.88,717.29,35.58,-36.19,-10.76,-51.30,38.10,14.25,27.2
2026/05/04 21:46:43.19,IMU,271.97,682.13,646.48,32.82,-45.44,-0.19,-51.75,39.75,12.15,27.3
2026/05/04 21:46:43.29,IMU,226.07,660.16,798.83,-6.73,15.93,-12.86,-51.30,40.35,11.25,27.0
2026/05/04 21:46:43.39,IMU,254.88,714.36,663.09,-2.62,0.05,-10.49,-51.75,41.25,10.05,27.0
2026/05/04 21:46:43.49,IMU,234.86,690.92,655.76,-31.34,6.56,-0.81,-51.00,41.70,10.35,27.1
2026/05/04 21:46:43.59,IMU,228.52,631.35,729.98,-20.53,10.51,-3.08,-51.60,40.80,13.05,26.9
2026/05/04 21:46:43.69,IMU,197.27,616.70,739.26,16.85,-21.11,-3.58,-50.55,40.80,12.00,27.4
2026/05/04 21:46:43.79,IMU,230.47,621.58,683.11,7.82,-24.91,-8.11,-54.15,39.60,14.85,27.0
2026/05/04 21:46:43.89,IMU,257.81,647.46,665.53,-4.21,-17.13,-16.31,-52.05,40.35,9.45,27.3
2026/05/04 21:46:43.99,IMU,281.74,697.27,631.84,-3.35,-18.44,-1.53,-52.20,41.70,7.50,27.3
2026/05/04 21:46:44.09,IMU,293.95,671.39,646.48,9.48,-20.30,1.82,-52.20,42.00,7.50,27.3
2026/05/04 21:46:44.19,IMU,299.80,648.93,658.20,5.52,3.63,1.05,-52.80,41.55,6.60,27.3
2026/05/04 21:46:44.29,IMU,277.83,662.11,645.51,7.69,1.69,-4.89,-52.50,42.45,6.45,27.3
2026/05/04 21:46:44.39,IMU,294.92,723.14,652.83,0.83,7.60,-5.47,-52.35,44.55,6.60,27.2
