Timestamp,Sensor,AccX,AccY,AccZ,GyrX,GyrY,GyrZ,MagX,MagY,MagZ,Temp
2026/04/22 21:51:04.02,IMU,64.45,135.25,-903.32,-10.36,-36.17,-96.66,21.60,-174.15,-398.40,27.3
2026/04/22 21:51:04.12,IMU,-154.30,146.48,-952.15,17.66,-35.47,-140.73,27.30,-177.75,-402.60,27.2
2026/04/22 21:51:04.22,IMU,-252.44,56.15,-1039.55,7.83,-16.49,-133.63,26.40,-187.50,-403.50,27.1
2026/04/22 21:51:04.32,IMU,-277.34,65.43,-1152.34,2.63,-1.72,-105.07,20.55,-196.65,-404.25,27.2
2026/04/22 21:51:04.42,IMU,-55.18,119.63,-923.83,-16.73,1.27,-135.10,13.65,-200.25,-406.50,27.3
2026/04/22 21:51:04.52,IMU,-169.92,-53.71,-1016.11,32.62,40.63,-153.11,1.35,-203.10,-408.15,27.3
2026/04/22 21:51:04.62,IMU,-337.40,-185.55,-1024.41,3.53,-3.94,-94.53,-10.80,-204.75,-404.40,27.3
2026/04/22 21:51:04.72,IMU,-375.00,-49.32,-1025.39,9.97,0.17,-23.76,-11.85,-203.25,-404.40,27.1
2026/04/22 21:51:04.82,IMU,-310.55,-14.16,-1011.23,-20.25,11.66,49.22,-11.85,-202.50,-405.75,27.0
2026/04/22 21:51:04.92,IMU,-170.41,-34.67,-861.82,19.60,-5.59,60.89,-9.90,-203.85,-405.30,27.1
2026/04/22 21:51:05.02,IMU,-309.08,-19.04,-997.07,86.94,17.13,71.13,-3.30,-209.85,-400.20,27.1
2026/04/22 21:51:05.12,IMU,-125.98,-169.92,-1068.85,18.22,31.11,71.56,-1.80,-214.80,-397.35,27.2
2026/04/22 21:51:05.22,IMU,-64.45,-268.07,-925.29,-8.95,-8.56,40.89,1.95,-217.65,-396.45,27.1
2026/04/22 21:51:05.32,IMU,-210.45,-306.64,-1152.83,41.56,18.16,29.23,7.80,-219.60,-392.40,27.0
2026/04/22 21:51:05.42,IMU,-50.29,-124.02,-1015.14,-16.05,26.82,44.21,7.65,-218.70,-393.30,27.5
2026/04/22 21:51:05.52,IMU,-141.11,-133.30,-981.45,1.55,-5.49,-26.34,6.75,-216.15,-392.85,27.5
2026/04/22 21:51:05.62,IMU,-176.27,-201.66,-1022.46,-38.21,23.15,-26.24,4.35,-215.25,-394.50,27.3
2026/04/22 21:51:05.72,IMU,-116.70,-40.53,-929.20,-27.56,-18.13,-12.10,1.05,-211.80,-396.60,27.1
2026/04/22 21:51:05.82,IMU,-194.34,-14.65,-957.52,-6.99,0.21,-2.15,1.65,-209.70,-396.75,27.5
2026/04/22 21:51:05.92,IMU,-117.68,-34.67,-1048.83,-6.29,5.82,5.11,1.05,-209.10,-399.90,27.4
2026/04/22 21:51:06.04,IMU,-136.72,-80.08,-978.52,-10.42,-2.68,-3.50,1.65,-208.20,-399.30,27.3
2026/04/22 21:51:06.14,IMU,-132.81,-36.62,-998.05,12.89,17.22,6.44,1.35,-208.05,-399.15,27.5
2026/04/22 21:51:06.24,IMU,-64.45,-28.81,-1054.20,2.54,8.21,11.14,2.70,-208.20,-398.55,26.8
2026/04/22 21:51:06.34,IMU,-63.48,20.51,-1001.46,8.89,-2.34,8.40,1.80,-210.30,-398.40,27.1
2026/04/22 21:51:06.44,IMU,-93.75,-62.99,-1079.10,3.30,0.11,2.08,0.45,-210.45,-397.80,27.3
2026/04/22 21:51:06.54,IMU,-96.68,-112.30,-1007.81,8.66,-3.88,1.39,1.05,-209.85,-396.60,26.9
2026/04/22 21:51:06.64,IMU,-104.49,-91.31,-995.61,14.24,0.40,-2.02,0.60,-211.35,-396.90,27.4
2026/04/22 21:51:06.74,IMU,-124.02,-63.48,-1016.11,1.81,-9.54,-0.71,0.90,-212.40,-396.00,26.9
2026/04/22 21:51:06.84,IMU,-142.58,-108.89,-998.54,7.40,-14.76,-12.74,0.60,-212.10,-396.30,27.2
2026/04/22 21:51:06.94,IMU,-188.48,-132.81,-1013.67,-8.66,2.73,-9.36,1.80,-212.10,-395.10,27.0
2026/04/22 21:51:07.04,IMU,-168.46,-87.40,-988.77,8.61,3.45,9.73,1.65,-210.45,-395.70,27.6
2026/04/22 21:51:07.14,IMU,-138.18,-108.40,-979.00,-1.90,2.69,-0.34,2.25,-211.95,-394.20,27.0
2026/04/22 21:51:07.24,IMU,-132.32,-96.68,-1028.32,-4.09,11.49,13.89,1.95,-211.65,-394.65,27.3
2026/04/22 21:51:07.34,IMU,-131.84,-122.56,-1032.71,0.24,1.89,6.31,1.65,-212.70,-396.00,27.3
2026/04/22 21:51:07.44,IMU,-147.46,-108.40,-976.56,-3.24,2.98,9.94,1.80,-211.05,-394.80,27.1
2026/04/22 21:51:07.54,IMU,-93.75,-84.96,-1018.55,-0.55,2.65,9.41,3.30,-211.05,-395.55,27.6
2026/04/22 21:51:07.64,IMU,-107.91,-78.12,-1032.23,-1.18,-2.24,0.82,3.90,-209.10,-395.85,26.8
2026/04/22 21:51:07.74,IMU,-94.73,-78.12,-1013.67,-6.61,-8.11,5.19,3.45,-209.70,-395.40,27.5
2026/04/22 21:51:07.84,IMU,-188.96,-83.98,-1045.90,10.11,-19.92,-0.69,3.45,-208.50,-396.75,27.1
2026/04/22 21:51:07.94,IMU,-185.55,-88.87,-955.57,-9.52,-5.25,8.34,6.75,-208.20,-397.20,27.3
2026/04/22 21:51:08.04,IMU,-171.39,-73.24,-908.69,1.97,2.56,8.67,7.05,-207.45,-397.80,27.3
2026/04/22 21:51:08.15,IMU,-139.65,-62.50,-1002.44,6.18,4.82,8.46,6.90,-207.60,-397.35,27.5
2026/04/22 21:51:08.25,IMU,-150.88,-79.10,-1028.32,6.24,-4.92,-2.11,7.95,-209.55,-396.30,27.5
2026/04/22 21:51:08.35,IMU,-164.06,-84.47,-1018.07,-0.59,1.51,-3.09,6.15,-210.60,-396.30,27.3
2026/04/22 21:51:08.45,IMU,-167.97,-92.29,-975.10,-3.16,-3.11,-6.11,7.50,-209.25,-396.45,27.5
2026/04/22 21:51:08.55,IMU,-203.13,-96.68,-981.45,0.14,-0.68,-2.87,6.75,-208.20,-397.80,27.5
2026/04/22 21:51:08.65,IMU,-181.15,-99.61,-966.80,-3.60,2.79,-1.94,6.00,-210.90,-396.45,27.5
2026/04/22 21:51:08.75,IMU,-172.36,-82.03,-992.19,1.89,1.09,-0.78,3.90,-209.55,-395.55,27.5
2026/04/22 21:51:08.85,IMU,-166.99,-86.43,-1003.91,3.48,-2.47,1.66,5.25,-209.70,-397.20,27.5
2026/04/22 21:51:08.95,IMU,-184.08,-115.23,-1006.84,-2.10,4.10,1.53,5.70,-208.95,-397.50,27.5
2026/04/22 21:51:09.05,IMU,-183.59,-94.73,-1002.93,1.14,2.92,2.41,6.60,-211.80,-396.90,27.5
2026/04/22 21:51:09.15,IMU,-128.42,-113.77,-945.31,-1.18,3.61,3.02,5.40,-210.30,-395.85,27.4
2026/04/22 21:51:09.25,IMU,-161.62,-132.32,-1018.55,37.95,-11.87,-16.76,5.10,-212.55,-395.55,27.3
2026/04/22 21:51:09.35,IMU,-167.97,-166.99,-1056.15,9.76,-0.44,-20.70,6.00,-213.45,-392.40,27.4
2026/04/22 21:51:09.45,IMU,-192.38,-217.29,-967.29,17.84,-6.95,-19.71,5.10,-217.05,-391.50,27.5
2026/04/22 21:51:09.55,IMU,-215.33,-263.18,-931.15,14.91,-19.15,-10.37,1.80,-217.80,-387.60,27.1
2026/04/22 21:51:09.65,IMU,-235.35,-315.92,-975.10,20.02,-7.61,-7.73,1.80,-219.45,-388.65,27.5
2026/04/22 21:51:09.75,IMU,-203.13,-322.75,-1015.14,-6.66,2.16,6.69,1.95,-219.15,-385.95,27.5
2026/04/22 21:51:09.85,IMU,-187.50,-254.88,-916.50,3.18,-25.86,-1.79,3.60,-219.75,-385.05,27.4
2026/04/22 21:51:09.95,IMU,-319.34,-239.75,-797.85,40.55,17.30,-26.20,3.45,-219.60,-386.25,27.5
2026/04/22 21:51:10.05,IMU,-334.96,-346.68,-1026.37,-13.71,23.03,-9.76,1.20,-223.35,-381.60,27.5
2026/04/22 21:51:10.15,IMU,-210.45,-453.13,-898.93,-24.05,-20.37,7.85,-1.20,-224.55,-379.80,27.5
2026/04/22 21:51:10.25,IMU,-203.13,-344.73,-913.09,-29.98,29.11,35.67,3.45,-221.10,-385.20,27.5
2026/04/22 21:51:10.35,IMU,-141.11,-182.13,-981.45,-36.31,31.69,32.96,6.90,-217.05,-387.15,27.5
2026/04/22 21:51:10.45,IMU,-124.02,-117.68,-1027.83,-43.73,25.76,37.17,8.40,-215.55,-391.95,27.3
2026/04/22 21:51:10.55,IMU,-97.66,-18.55,-965.82,-53.29,7.47,44.48,9.75,-209.70,-396.75,27.5
2026/04/22 21:51:10.65,IMU,29.30,94.73,-1020.51,-34.90,68.63,85.95,13.65,-204.45,-398.55,27.3
2026/04/22 21:51:10.75,IMU,65.92,10.25,-1031.74,40.34,9.89,8.38,11.40,-200.40,-401.25,27.5
2026/04/22 21:51:10.85,IMU,145.02,30.76,-916.50,28.67,2.40,-37.18,12.00,-201.60,-400.20,27.5
2026/04/22 21:51:10.95,IMU,102.54,-84.96,-1070.80,42.81,6.37,-75.83,3.45,-207.00,-397.50,27.2
2026/04/22 21:51:11.05,IMU,-120.61,-266.11,-997.56,-28.11,-25.71,-35.40,-1.20,-210.90,-393.90,27.5
2026/04/22 21:51:11.17,IMU,-65.43,-137.21,-881.84,13.60,-12.98,-13.26,-6.00,-210.90,-388.50,27.3
2026/04/22 21:51:11.27,IMU,-76.17,-94.24,-1001.46,-11.70,7.82,-35.61,-3.00,-210.90,-391.05,27.3
2026/04/22 21:51:11.37,IMU,-73.24,-54.20,-996.58,-13.02,-21.79,-47.44,-8.55,-208.20,-391.65,27.2
2026/04/22 21:51:11.47,IMU,4.39,-41.02,-923.83,-13.98,31.73,-25.67,-10.20,-210.30,-390.45,27.5
2026/04/22 21:51:11.57,IMU,35.64,-115.72,-1038.57,21.06,-12.16,5.19,-10.95,-211.05,-390.45,27.5
2026/04/22 21:51:11.67,IMU,-33.69,-97.17,-1006.35,7.00,1.52,-0.77,-11.55,-211.95,-394.20,27.6
2026/04/22 21:51:11.77,IMU,18.07,-109.37,-1031.74,4.67,5.67,-8.20,-12.00,-212.10,-396.30,27.6
2026/04/22 21:51:11.87,IMU,18.07,-137.21,-1028.32,10.43,-13.18,2.37,-12.45,-213.00,-396.30,27.3
2026/04/22 21:51:11.97,IMU,28.81,-155.76,-1031.25,25.82,-29.86,4.41,-11.70,-212.10,-395.85,27.5
2026/04/22 21:51:12.07,IMU,-157.23,-196.78,-938.48,6.18,-51.09,-9.85,-8.40,-211.80,-394.50,27.5
2026/04/22 21:51:12.17,IMU,-166.99,-167.97,-974.61,-11.37,7.60,9.76,-6.30,-213.15,-393.15,27.5
2026/04/22 21:51:12.27,IMU,-136.72,-176.27,-990.72,11.60,-10.31,-2.45,-7.05,-212.70,-393.60,27.5
2026/04/22 21:51:12.37,IMU,-221.68,-223.63,-1032.71,-30.59,-23.18,8.33,-5.25,-212.40,-395.70,27.6
2026/04/22 21:51:12.47,IMU,-238.28,-35.64,-922.36,-8.40,-46.82,-4.85,-0.60,-209.55,-396.90,27.5
2026/04/22 21:51:12.57,IMU,-231.93,-96.19,-1017.58,-20.02,6.80,2.54,1.20,-209.70,-394.95,27.5
2026/04/22 21:51:12.67,IMU,-187.99,-110.84,-922.85,-4.16,10.80,-32.05,0.00,-209.10,-398.40,27.1
2026/04/22 21:51:12.77,IMU,-226.07,-44.43,-995.61,-18.65,9.10,-3.04,-3.30,-208.35,-399.90,27.5
2026/04/22 21:51:12.87,IMU,-245.61,-155.27,-959.47,2.19,-3.68,-29.15,-5.25,-208.20,-401.40,27.5
2026/04/22 21:51:12.98,IMU,-172.85,-73.73,-886.23,-15.80,15.06,7.31,-7.65,-207.30,-402.00,27.5
2026/04/22 21:51:13.08,IMU,-231.93,-77.64,-1001.95,13.75,20.81,0.00,-7.65,-209.55,-402.30,27.3
2026/04/22 21:51:13.18,IMU,-168.46,-57.62,-1064.45,-22.82,-2.65,12.10,-12.60,-207.75,-403.95,27.3
2026/04/22 21:51:13.28,IMU,-82.52,4.39,-901.86,-30.18,31.55,20.77,-11.40,-205.35,-405.60,27.6
2026/04/22 21:51:13.38,IMU,43.95,36.62,-1009.77,-11.73,43.54,-6.50,-13.65,-205.50,-406.20,27.6
2026/04/22 21:51:13.48,IMU,-2.44,-52.73,-1019.53,6.13,-9.21,-14.81,-17.40,-207.75,-405.45,27.3
2026/04/22 21:51:13.58,IMU,-88.87,-10.25,-1017.09,-0.20,-0.15,-1.15,-17.40,-207.00,-403.65,27.6
2026/04/22 21:51:13.68,IMU,-57.13,-29.79,-935.55,37.48,4.22,18.26,-18.00,-209.10,-404.25,27.3
2026/04/22 21:51:13.78,IMU,84.47,-87.89,-1131.35,3.88,0.77,55.04,-18.00,-211.05,-400.95,27.6
2026/04/22 21:51:13.88,IMU,-80.08,-71.29,-1000.00,-18.68,-6.39,-8.10,-13.95,-211.35,-403.80,27.3
2026/04/22 21:51:13.98,IMU,-50.78,-28.81,-1028.81,-15.98,5.99,11.94,-12.60,-210.45,-405.15,27.6
2026/04/22 21:51:14.08,IMU,-70.31,83.01,-965.33,-38.19,-33.13,-4.88,-11.70,-207.60,-406.65,27.4
2026/04/22 21:51:14.18,IMU,19.53,95.21,-920.90,-49.10,76.41,8.38,-12.45,-205.35,-407.85,27.5
2026/04/22 21:51:14.28,IMU,2.44,56.15,-1010.25,17.85,15.13,-8.56,-17.25,-201.90,-407.40,27.3
2026/04/22 21:51:14.38,IMU,-17.09,6.84,-1337.40,22.47,-39.67,-6.37,-18.15,-204.45,-407.55,27.6
2026/04/22 21:51:14.48,IMU,91.31,76.17,-964.36,4.21,36.05,23.92,-18.30,-205.65,-407.40,27.6
2026/04/22 21:51:14.58,IMU,158.20,11.72,-1023.44,23.53,22.85,-3.86,-19.65,-208.95,-407.25,27.6
2026/04/22 21:51:14.68,IMU,123.54,43.95,-991.70,14.34,11.94,9.20,-20.85,-209.85,-403.05,27.5
2026/04/22 21:51:14.78,IMU,57.62,-61.04,-1037.60,-0.84,-10.42,4.32,-20.55,-211.35,-401.70,27.5
2026/04/22 21:51:14.88,IMU,115.72,-37.11,-977.54,-10.52,-7.82,16.40,-19.05,-210.60,-403.05,27.7
2026/04/22 21:51:14.98,IMU,59.57,-15.14,-1091.80,-18.60,-12.31,-3.53,-17.70,-210.15,-402.60,27.6
2026/04/22 21:51:15.09,IMU,97.17,-3.42,-1011.23,-2.76,0.28,-7.58,-15.90,-209.25,-405.45,27.6
2026/04/22 21:51:15.19,IMU,33.69,-8.79,-1045.41,-16.19,-7.38,-13.30,-14.85,-207.45,-404.70,27.5
2026/04/22 21:51:15.29,IMU,-36.13,67.87,-1018.07,-42.42,-34.79,-30.70,-14.25,-204.90,-407.85,27.5
2026/04/22 21:51:15.39,IMU,-108.89,106.93,-947.27,-18.11,-10.33,-16.53,-14.70,-202.65,-408.15,27.6
2026/04/22 21:51:15.49,IMU,-60.55,163.09,-960.45,6.63,-24.00,-15.95,-14.10,-201.30,-410.10,27.7
2026/04/22 21:51:15.59,IMU,-101.56,127.93,-988.77,-7.04,-0.14,-15.84,-14.40,-198.75,-412.35,27.3
2026/04/22 21:51:15.69,IMU,-26.86,165.53,-935.55,-0.26,11.39,-5.60,-15.90,-199.50,-410.85,27.5
2026/04/22 21:51:15.79,IMU,-73.73,-12.70,-1028.81,36.47,-7.04,62.21,-19.20,-199.80,-410.85,27.6
2026/04/22 21:51:15.89,IMU,-134.77,73.24,-953.61,33.64,7.98,28.60,-8.70,-204.15,-411.00,27.6
2026/04/22 21:51:15.99,IMU,-11.72,109.37,-1071.78,54.19,15.64,61.24,-9.75,-207.75,-408.00,27.5
2026/04/22 21:51:16.09,IMU,1.46,-83.50,-1046.88,8.08,-8.21,3.44,-6.75,-213.45,-406.95,27.6
2026/04/22 21:51:16.19,IMU,-28.32,-112.30,-1013.18,-3.71,8.67,54.30,-6.30,-211.65,-406.20,27.5
2026/04/22 21:51:16.29,IMU,-166.50,-234.38,-945.80,7.74,5.15,28.01,-3.30,-209.10,-405.60,27.7
2026/04/22 21:51:16.39,IMU,56.64,79.10,-978.52,-10.94,-20.53,24.46,1.20,-208.50,-405.15,27.8
2026/04/22 21:51:16.49,IMU,-110.35,11.23,-1028.81,-9.93,-19.84,-2.35,2.70,-208.20,-403.95,27.5
2026/04/22 21:51:16.59,IMU,-41.02,2.44,-1024.41,-50.98,8.52,-29.04,3.60,-206.55,-406.05,27.9
2026/04/22 21:51:16.69,IMU,-122.56,17.58,-940.43,20.73,39.21,-63.12,-1.95,-201.75,-408.75,27.6
2026/04/22 21:51:16.79,IMU,88.38,104.49,-998.05,-6.72,11.80,6.16,-6.00,-202.50,-408.30,27.6
2026/04/22 21:51:16.89,IMU,45.90,-10.25,-907.23,0.20,-32.62,8.23,-0.60,-202.65,-409.65,27.6
2026/04/22 21:51:16.99,IMU,-25.88,31.74,-1078.61,53.41,-11.12,27.05,2.25,-205.20,-406.20,27.4
2026/04/22 21:51:17.09,IMU,-82.03,-25.39,-1009.28,1.35,-9.64,6.05,4.20,-207.75,-405.45,27.8
2026/04/22 21:51:17.19,IMU,-81.54,15.14,-1028.81,-1.28,3.68,-9.04,5.10,-207.30,-404.55,27.6
2026/04/22 21:51:17.29,IMU,-38.09,-48.83,-1035.16,-2.69,11.83,-3.82,1.05,-211.80,-400.20,27.5
2026/04/22 21:51:17.39,IMU,-5.86,21.00,-980.47,-10.95,0.34,-0.66,2.85,-206.55,-405.30,27.5
2026/04/22 21:51:17.49,IMU,19.04,-23.44,-922.36,-25.16,-28.73,-15.80,1.95,-205.20,-408.30,27.5
2026/04/22 21:51:17.59,IMU,-109.86,39.55,-991.21,22.80,3.60,-6.02,4.35,-205.35,-406.35,27.6
2026/04/22 21:51:17.69,IMU,-72.27,18.07,-1029.30,2.84,3.21,0.87,3.90,-207.30,-406.05,27.5
2026/04/22 21:51:17.80,IMU,-57.62,21.00,-1024.41,-1.81,-2.73,6.05,4.20,-206.70,-405.45,27.5
2026/04/22 21:51:17.90,IMU,-114.75,20.02,-1046.39,-1.91,2.02,11.00,4.20,-205.95,-405.75,27.6
2026/04/22 21:51:18.00,IMU,-7.32,21.97,-990.23,2.74,-0.64,-1.90,2.85,-206.10,-404.85,27.3
2026/04/22 21:51:18.10,IMU,-50.78,11.72,-1004.88,-1.81,-0.44,-0.72,4.50,-205.50,-406.50,27.6
2026/04/22 21:51:18.20,IMU,-89.36,40.53,-1008.79,-0.50,-2.89,0.47,3.00,-206.70,-404.40,27.5
2026/04/22 21:51:18.31,IMU,-64.94,62.50,-999.51,-37.34,9.32,22.76,1.80,-206.10,-402.75,27.3
2026/04/22 21:51:18.41,IMU,21.48,85.45,-959.47,11.29,-0.16,-6.47,4.50,-205.20,-407.55,27.2
2026/04/22 21:51:18.51,IMU,-45.90,39.55,-1024.90,4.76,-4.57,-5.65,4.95,-205.20,-406.50,27.6
2026/04/22 21:51:18.61,IMU,-76.17,51.27,-1019.04,3.10,-3.46,-1.91,3.00,-205.95,-407.55,27.3
2026/04/22 21:51:18.71,IMU,-72.27,17.58,-1035.16,-0.18,0.43,5.08,4.50,-205.50,-406.20,27.3
2026/04/22 21:51:18.81,IMU,-63.96,36.13,-1016.60,1.81,4.46,-1.48,4.20,-205.95,-406.95,27.6
2026/04/22 21:51:18.91,IMU,-38.57,39.06,-997.07,1.78,-3.40,-1.46,5.10,-205.65,-406.05,27.6
2026/04/22 21:51:19.01,IMU,-93.75,30.27,-1028.32,-4.64,7.29,1.93,4.50,-206.70,-405.75,27.5
2026/04/22 21:51:19.11,IMU,-11.23,52.73,-1006.84,-2.77,1.86,-1.39,3.75,-205.20,-406.95,27.4
2026/04/22 21:51:19.21,IMU,-49.32,27.83,-1016.11,-1.49,-1.60,-5.26,3.60,-205.65,-407.40,27.5
2026/04/22 21:51:19.31,IMU,-42.48,37.11,-1016.60,2.88,-5.29,-4.18,4.20,-204.75,-405.75,27.5
2026/04/22 21:51:19.41,IMU,-58.11,27.83,-1012.21,-0.24,-0.02,-1.88,3.75,-205.50,-408.00,27.5
2026/04/22 21:51:19.51,IMU,-87.40,32.23,-938.48,6.92,0.93,-1.69,3.30,-204.90,-406.65,27.5
2026/04/22 21:51:19.61,IMU,-55.18,52.73,-1022.46,-0.46,0.97,-0.66,1.80,-204.90,-405.60,27.4
2026/04/22 21:51:19.71,IMU,-44.43,35.16,-1001.95,-0.63,5.38,3.92,3.30,-204.90,-407.40,27.6
2026/04/22 21:51:19.81,IMU,-58.11,46.88,-1021.00,2.65,-4.50,-5.98,5.10,-204.90,-407.10,27.5
2026/04/22 21:51:19.91,IMU,-44.92,32.23,-1009.77,-1.89,0.34,1.82,4.95,-205.95,-406.20,27.5
2026/04/22 21:51:20.01,IMU,-61.04,14.16,-1021.00,-0.69,2.76,-0.43,2.85,-206.55,-407.10,27.3
2026/04/22 21:51:20.11,IMU,-68.85,39.55,-1007.81,0.37,0.64,-0.78,3.75,-205.95,-407.25,27.3
2026/04/22 21:51:20.22,IMU,-60.55,40.04,-1029.30,-0.19,4.18,5.13,3.00,-206.25,-406.20,27.5
2026/04/22 21:51:20.32,IMU,-64.94,37.60,-1010.74,-0.55,0.34,-0.40,3.45,-206.25,-406.95,27.3
2026/04/22 21:51:20.42,IMU,-62.01,35.16,-1030.27,2.53,-1.79,-0.33,4.20,-205.20,-406.50,27.5
2026/04/22 21:51:20.52,IMU,-55.66,41.02,-1018.07,2.22,-0.21,1.24,4.65,-206.55,-407.40,27.3
2026/04/22 21:51:20.62,IMU,-47.36,17.09,-1018.55,-0.85,-0.25,1.25,3.75,-207.45,-406.20,27.3
2026/04/22 21:51:20.72,IMU,-61.04,16.11,-1001.95,0.09,-0.32,-2.74,3.30,-205.35,-406.05,27.2
2026/04/22 21:51:20.82,IMU,-52.73,34.67,-987.79,-2.46,6.29,2.56,3.45,-206.70,-408.30,27.2
2026/04/22 21:51:20.93,IMU,-41.50,22.46,-1011.72,1.98,1.90,-1.34,3.30,-205.35,-406.65,27.5
2026/04/22 21:51:21.03,IMU,-36.13,13.67,-1041.02,1.46,4.64,0.01,2.70,-205.95,-407.25,27.4
2026/04/22 21:51:21.13,IMU,-34.18,15.63,-1009.77,-0.32,-3.15,-3.58,2.10,-205.35,-406.05,27.4
2026/04/22 21:51:21.23,IMU,-33.69,22.95,-1001.95,-0.76,-1.02,-1.13,1.65,-205.50,-405.45,27.3
2026/04/22 21:51:21.33,IMU,-27.83,32.71,-1002.44,-1.66,-2.11,-5.09,2.25,-205.20,-407.25,27.5
2026/04/22 21:51:21.43,IMU,-48.83,33.69,-1022.46,-0.74,-1.77,-1.30,2.10,-205.35,-406.35,27.3
2026/04/22 21:51:21.53,IMU,-35.16,19.04,-1010.74,0.92,0.27,2.59,2.55,-206.55,-406.35,27.3
2026/04/22 21:51:21.63,IMU,-42.97,31.25,-1006.35,0.26,0.48,0.32,3.90,-205.65,-407.10,27.1
2026/04/22 21:51:21.73,IMU,-50.29,29.79,-1006.35,1.50,0.59,2.40,3.30,-205.65,-406.35,27.3
2026/04/22 21:51:21.83,IMU,-15.14,24.41,-1006.84,2.83,-3.63,-0.26,2.85,-204.90,-406.05,27.1
2026/04/22 21:51:21.93,IMU,-95.21,6.35,-1019.04,-2.11,-2.78,-1.36,4.50,-206.25,-404.40,27.5
2026/04/22 21:51:22.03,IMU,-56.64,23.93,-1006.84,-0.17,-0.57,2.26,4.50,-206.70,-405.15,27.2
2026/04/22 21:51:22.13,IMU,-74.22,23.93,-1012.21,-1.83,2.19,4.72,5.70,-207.45,-405.75,27.3
2026/04/22 21:51:22.23,IMU,-78.61,27.83,-1023.93,0.28,-2.24,-2.14,5.25,-205.20,-406.50,27.5
2026/04/22 21:51:22.33,IMU,-70.80,17.09,-987.79,0.43,2.59,2.18,4.20,-207.45,-405.45,27.3
2026/04/22 21:51:22.43,IMU,-62.99,18.55,-1009.77,-0.39,-2.40,-0.97,4.65,-206.85,-404.55,27.1
2026/04/22 21:51:22.53,IMU,-54.69,20.02,-1000.98,1.15,-1.51,-1.36,4.65,-207.30,-405.60,27.3
2026/04/22 21:51:22.63,IMU,-73.24,31.25,-1013.18,0.05,1.84,-0.28,6.00,-207.00,-405.75,27.3
2026/04/22 21:51:22.73,IMU,-68.36,24.90,-1009.77,1.24,-1.29,1.24,4.50,-206.25,-405.15,27.3
2026/04/22 21:51:22.84,IMU,-64.45,11.72,-1014.16,0.31,0.21,1.34,5.40,-206.85,-406.65,27.3
2026/04/22 21:51:22.94,IMU,-70.31,16.60,-1014.65,2.09,-2.87,-2.63,3.75,-207.45,-406.50,27.1
2026/04/22 21:51:23.04,IMU,-75.68,7.32,-1022.95,-0.98,-0.53,-2.20,4.50,-205.50,-405.75,27.2
2026/04/22 21:51:23.14,IMU,-74.22,8.79,-1011.72,0.19,1.22,0.55,5.25,-207.00,-405.75,27.1
2026/04/22 21:51:23.24,IMU,-81.05,3.42,-1016.60,0.57,0.48,-3.48,6.15,-206.85,-406.65,27.3
2026/04/22 21:51:23.34,IMU,-68.85,27.34,-1008.79,0.84,3.31,0.66,4.65,-206.85,-404.55,27.2
2026/04/22 21:51:23.44,IMU,-72.27,25.39,-1003.42,1.15,-4.87,-2.76,5.25,-207.45,-407.25,27.2
2026/04/22 21:51:23.54,IMU,-83.98,16.11,-1016.11,1.35,-1.62,-0.39,5.85,-206.55,-405.60,27.0
2026/04/22 21:51:23.64,IMU,-61.04,3.91,-1031.25,0.76,1.87,2.47,4.65,-206.85,-404.85,27.3
2026/04/22 21:51:23.74,IMU,-72.75,0.49,-1003.42,-2.03,6.03,-1.32,5.10,-208.05,-406.05,27.2
2026/04/22 21:51:23.84,IMU,-82.52,17.09,-1017.09,1.09,0.18,-2.37,4.35,-206.85,-405.60,27.2
2026/04/22 21:51:23.94,IMU,-56.64,11.23,-1010.25,3.01,0.64,-1.66,3.75,-207.45,-404.70,27.1
2026/04/22 21:51:24.04,IMU,-63.48,9.28,-1023.44,0.82,3.51,-0.36,4.35,-207.30,-406.35,27.2
2026/04/22 21:51:24.14,IMU,-71.78,4.39,-1013.18,1.58,1.01,-1.41,3.75,-207.00,-406.20,27.5
2026/04/22 21:51:24.24,IMU,-47.85,-2.93,-1002.44,1.16,-2.00,3.34,3.75,-207.00,-404.40,27.0
2026/04/22 21:51:24.34,IMU,-94.73,9.28,-1026.86,0.85,1.24,2.53,3.90,-208.05,-405.30,27.5
2026/04/22 21:51:24.44,IMU,-66.89,-3.42,-1013.67,0.21,0.15,-3.41,1.65,-209.70,-401.10,27.6
2026/04/22 21:51:24.54,IMU,-68.85,7.32,-1010.25,-1.19,0.96,-1.46,4.65,-208.05,-404.85,27.2
2026/04/22 21:51:24.64,IMU,-93.26,13.67,-1017.58,3.18,-5.34,-1.92,5.25,-207.45,-404.70,27.1
2026/04/22 21:51:24.74,IMU,-95.21,4.88,-1016.60,-1.23,1.34,4.92,6.00,-208.20,-404.70,27.1
2026/04/22 21:51:24.84,IMU,-88.38,-1.95,-1016.60,2.32,1.74,3.68,4.65,-208.80,-405.60,27.5
2026/04/22 21:51:24.94,IMU,-74.71,8.30,-1013.18,1.11,-0.94,-1.67,5.25,-208.20,-404.70,27.3
2026/04/22 21:51:25.05,IMU,-105.96,16.11,-1042.97,0.97,-1.73,-3.28,6.60,-208.80,-404.85,27.3
2026/04/22 21:51:25.15,IMU,-83.50,7.32,-997.56,1.39,1.67,1.26,5.70,-207.75,-403.95,27.2
2026/04/22 21:51:25.25,IMU,-56.64,-2.44,-994.63,0.11,2.63,0.30,6.75,-207.45,-405.15,27.5
2026/04/22 21:51:25.35,IMU,-86.43,0.00,-1003.91,-0.45,-0.11,-4.97,4.50,-207.75,-404.40,27.2
2026/04/22 21:51:25.45,IMU,-104.98,-9.28,-1013.67,-2.38,2.46,0.40,1.35,-211.35,-399.90,27.3
2026/04/22 21:51:25.55,IMU,-74.71,2.93,-1004.39,1.54,-2.31,-5.28,4.95,-207.45,-404.40,27.4
2026/04/22 21:51:25.65,IMU,-78.61,4.88,-1009.77,-1.28,-0.19,-0.03,5.85,-208.80,-403.80,27.3
2026/04/22 21:51:25.75,IMU,-112.30,0.98,-1013.67,0.26,3.54,3.92,4.95,-208.95,-406.20,27.2
2026/04/22 21:51:25.85,IMU,-63.48,-5.86,-999.02,0.03,3.44,2.34,5.25,-207.75,-406.50,27.1
2026/04/22 21:51:25.95,IMU,-76.66,-1.95,-1014.16,2.18,-3.23,-5.87,5.25,-208.95,-406.50,27.3
2026/04/22 21:51:26.06,IMU,-84.96,17.58,-1003.42,-1.69,2.42,-0.15,4.95,-208.95,-404.70,27.2
2026/04/22 21:51:26.16,IMU,-103.03,-0.98,-1020.02,0.47,-1.05,1.45,5.85,-208.80,-404.25,27.3
2026/04/22 21:51:26.26,IMU,-97.66,-7.32,-1010.74,2.50,-4.04,3.07,4.65,-207.30,-403.05,27.0
2026/04/22 21:51:26.36,IMU,-94.73,-11.72,-1021.97,-0.95,0.47,4.10,5.25,-207.75,-404.70,27.4
2026/04/22 21:51:26.47,IMU,-92.29,-2.93,-1019.53,1.05,1.18,2.17,2.70,-211.20,-400.35,27.2
2026/04/22 21:51:26.57,IMU,-71.78,2.93,-1007.32,-1.33,0.04,-2.24,6.00,-208.95,-404.40,27.2
2026/04/22 21:51:26.67,IMU,-112.30,-6.35,-1003.91,0.58,-1.58,-3.24,6.15,-209.10,-404.55,27.5
2026/04/22 21:51:26.77,IMU,-86.91,-0.49,-999.51,0.44,3.70,2.69,5.40,-207.60,-404.55,27.3
2026/04/22 21:51:26.87,IMU,-67.38,-5.86,-1022.46,-1.43,2.04,-1.02,5.70,-207.45,-405.45,27.3
2026/04/22 21:51:26.97,IMU,-98.14,-0.49,-995.61,-0.02,0.99,-12.11,5.40,-208.80,-404.25,27.3
2026/04/22 21:51:27.07,IMU,-77.64,-20.51,-1029.79,-1.18,6.70,-3.94,5.40,-206.85,-405.30,27.0
2026/04/22 21:51:27.17,IMU,-69.82,11.72,-995.61,-5.13,4.79,-0.57,4.50,-209.25,-403.95,27.5
2026/04/22 21:51:27.27,IMU,-1.46,-17.09,-1002.44,-15.76,34.80,1.17,2.25,-207.00,-405.75,27.1
2026/04/22 21:51:27.37,IMU,-65.92,90.82,-1027.83,25.60,-27.07,-18.50,0.90,-208.20,-406.50,27.1
2026/04/22 21:51:27.47,IMU,-23.44,-31.74,-1021.48,-16.45,17.94,37.07,1.20,-207.45,-405.45,27.3
2026/04/22 21:51:27.57,IMU,72.75,-21.48,-975.59,21.56,-22.85,-18.21,3.00,-208.95,-405.15,27.3
2026/04/22 21:51:27.67,IMU,-109.37,-21.00,-1036.13,10.66,-21.75,-17.81,3.90,-210.60,-404.55,27.1
2026/04/22 21:51:27.77,IMU,-111.82,-19.53,-1007.32,-6.92,5.27,7.31,4.20,-210.90,-402.15,27.2
2026/04/22 21:51:27.87,IMU,-88.87,-61.04,-1034.67,8.16,-18.02,2.21,4.95,-210.15,-403.20,27.4
2026/04/22 21:51:27.97,IMU,-159.18,-70.31,-1061.52,-2.61,11.47,-8.92,6.15,-211.35,-401.70,27.3
2026/04/22 21:51:28.07,IMU,-105.47,-23.44,-1049.32,-5.16,8.39,-12.94,4.95,-211.20,-403.20,27.3
2026/04/22 21:51:28.17,IMU,-43.46,-45.41,-1023.93,4.88,12.34,-2.90,1.35,-211.05,-403.05,27.2
2026/04/22 21:51:28.27,IMU,-125.98,-34.67,-1003.91,1.78,6.74,0.35,2.10,-213.30,-403.05,27.4
2026/04/22 21:51:28.37,IMU,-6.35,-54.20,-1011.23,7.92,-1.63,5.73,-0.45,-212.70,-402.60,27.3
2026/04/22 21:51:28.47,IMU,-32.71,-29.79,-997.56,11.85,-29.69,-3.30,1.80,-213.00,-403.50,27.0
2026/04/22 21:51:28.57,IMU,-103.52,-64.94,-1025.39,-8.58,14.06,4.10,0.90,-213.45,-401.40,27.1
2026/04/22 21:51:28.67,IMU,-32.71,-54.20,-1000.98,0.49,-1.31,-2.89,0.90,-212.70,-401.40,27.5
2026/04/22 21:51:28.77,IMU,-63.96,-73.24,-1029.79,7.79,-0.52,-6.24,0.90,-213.15,-400.05,27.2
2026/04/22 21:51:28.89,IMU,-86.91,-43.95,-1039.55,-6.38,18.68,-3.95,-1.95,-213.45,-401.10,27.5
2026/04/22 21:51:28.99,IMU,-24.41,-69.34,-1018.55,0.76,-1.63,-6.14,-1.05,-212.10,-402.00,27.5
2026/04/22 21:51:29.09,IMU,-49.32,-48.34,-1004.88,-6.84,0.96,-10.34,-3.30,-212.10,-401.25,27.5
2026/04/22 21:51:29.19,IMU,-48.83,-37.11,-1034.18,3.84,-6.70,-3.11,-4.65,-213.00,-401.70,27.5
2026/04/22 21:51:29.29,IMU,-4.39,-47.85,-1010.25,-5.86,10.39,6.17,-3.45,-212.40,-402.15,27.5
2026/04/22 21:51:29.39,IMU,-43.95,-42.97,-1023.93,-2.25,-2.54,-2.39,-2.70,-211.65,-401.85,27.3
2026/04/22 21:51:29.49,IMU,-82.03,-16.60,-990.23,1.45,5.11,6.08,-1.35,-212.55,-402.00,27.3
2026/04/22 21:51:29.59,IMU,3.91,-44.92,-1003.91,2.21,0.96,7.34,-1.95,-213.90,-401.85,27.4
2026/04/22 21:51:29.69,IMU,-65.92,-68.36,-1025.88,5.58,-6.18,-4.44,-1.65,-213.90,-401.85,27.5
2026/04/22 21:51:29.79,IMU,-27.83,-22.95,-999.51,-0.69,5.35,0.80,-2.70,-212.55,-401.70,27.3
2026/04/22 21:51:29.89,IMU,-39.06,-37.11,-1016.11,-1.91,4.52,2.27,-1.95,-213.45,-401.85,27.5
2026/04/22 21:51:29.99,IMU,-52.73,-26.86,-1011.23,0.63,0.82,2.83,-1.05,-213.75,-402.00,27.0
2026/04/22 21:51:30.09,IMU,-29.30,-47.85,-1018.55,2.63,-0.62,2.23,-2.10,-213.00,-402.00,27.2
2026/04/22 21:51:30.19,IMU,-29.79,-51.27,-1002.93,-1.05,0.57,-3.16,-1.20,-212.40,-401.40,27.3
2026/04/22 21:51:30.29,IMU,-31.74,-39.06,-1032.71,0.69,0.50,-10.11,-1.80,-212.55,-401.70,27.2
2026/04/22 21:51:30.39,IMU,-44.43,-61.52,-980.47,-0.31,7.43,0.55,-3.00,-212.40,-402.60,27.3
2026/04/22 21:51:30.49,IMU,-3.91,-42.48,-1000.00,1.37,-7.22,-5.60,-4.20,-214.20,-402.60,27.2
2026/04/22 21:51:30.59,IMU,-64.94,-40.04,-1026.37,-0.75,2.53,-0.96,-4.20,-211.95,-401.85,27.5
2026/04/22 21:51:30.69,IMU,-20.51,-43.46,-1016.60,-0.02,3.43,-3.33,-5.25,-212.40,-401.40,27.3
2026/04/22 21:51:30.79,IMU,-12.70,-21.00,-1011.72,-0.82,-0.91,0.74,-4.50,-211.20,-402.15,27.0
2026/04/22 21:51:30.89,IMU,-6.84,-21.97,-1006.84,-0.04,-3.34,3.14,-3.00,-212.40,-402.60,27.5
2026/04/22 21:51:30.99,IMU,-15.14,-31.25,-996.58,-4.05,1.87,1.22,-0.60,-213.00,-401.70,27.3
2026/04/22 21:51:31.09,IMU,-135.25,-125.49,-1117.68,0.19,5.88,4.06,-2.85,-212.55,-403.50,27.2
2026/04/22 21:51:31.19,IMU,3.91,-65.92,-982.91,-0.98,-2.78,3.21,-2.55,-212.10,-402.75,27.5
2026/04/22 21:51:31.29,IMU,-31.25,-32.71,-1016.11,2.95,-3.46,0.10,-1.95,-212.70,-402.60,27.3
2026/04/22 21:51:31.39,IMU,-41.50,-35.16,-1021.48,-0.28,0.13,-1.23,-1.80,-211.35,-403.05,27.5
2026/04/22 21:51:31.49,IMU,-46.39,-49.32,-1001.95,-0.14,-0.33,0.43,-2.25,-213.45,-402.60,27.3
2026/04/22 21:51:31.59,IMU,-46.88,-55.18,-1010.25,1.27,-3.63,1.15,-1.65,-212.40,-402.15,27.4
2026/04/22 21:51:31.69,IMU,-34.18,-55.66,-1013.67,1.05,1.96,1.14,-1.95,-213.45,-401.40,27.1
2026/04/22 21:51:31.80,IMU,-42.48,-43.46,-1022.95,-0.82,-0.21,-2.64,-1.20,-213.15,-402.90,27.5
2026/04/22 21:51:31.90,IMU,-30.76,-31.25,-1008.30,-0.38,1.08,-2.22,-1.05,-214.05,-402.30,27.5
2026/04/22 21:51:32.00,IMU,-38.57,-31.74,-1009.28,-1.52,-0.44,-1.08,-1.65,-211.95,-401.10,27.1
2026/04/22 21:51:32.10,IMU,-40.53,-40.04,-1016.60,0.05,0.82,0.23,-2.25,-211.65,-402.15,27.5
2026/04/22 21:51:32.20,IMU,-45.90,-57.13,-1007.32,1.15,-4.79,-1.18,-1.95,-213.15,-402.60,27.3
2026/04/22 21:51:32.30,IMU,-34.18,-55.18,-1017.58,2.92,1.31,3.07,-1.95,-211.95,-402.60,27.3
2026/04/22 21:51:32.40,IMU,-45.41,-45.41,-1016.60,0.41,-1.48,-3.16,-2.85,-212.10,-402.75,27.3
2026/04/22 21:51:32.50,IMU,-55.66,-40.04,-1012.70,-0.30,0.19,3.50,-1.20,-213.15,-400.35,27.3
2026/04/22 21:51:32.60,IMU,-36.13,-43.95,-1015.63,-1.20,0.07,-0.36,-5.40,-214.50,-398.10,27.5
2026/04/22 21:51:32.70,IMU,-38.09,-35.16,-1010.25,2.25,0.68,-2.31,-2.25,-213.45,-402.90,27.4
2026/04/22 21:51:32.80,IMU,-35.64,-46.39,-1009.77,0.28,2.35,-3.27,-1.65,-213.15,-402.60,27.5
2026/04/22 21:51:32.90,IMU,-51.76,-33.69,-1035.16,-0.85,0.62,-0.57,-3.90,-212.55,-402.00,27.3
2026/04/22 21:51:33.00,IMU,-47.85,-34.67,-1017.58,0.79,-1.54,0.74,-2.55,-213.75,-403.05,27.3
2026/04/22 21:51:33.10,IMU,-35.64,-36.13,-1011.23,0.58,-1.55,-2.27,-1.35,-211.80,-402.00,27.5
2026/04/22 21:51:33.20,IMU,-36.13,-47.85,-1006.84,-0.15,1.69,1.38,-0.60,-211.80,-402.00,27.3
2026/04/22 21:51:33.30,IMU,-55.18,-33.69,-1031.25,-1.79,1.47,-1.58,-2.10,-212.55,-403.80,27.3
2026/04/22 21:51:33.40,IMU,-32.71,-36.62,-1011.23,1.77,-2.74,-1.20,-2.55,-212.55,-402.30,27.5
2026/04/22 21:51:33.50,IMU,-46.88,-33.69,-1003.91,-1.64,0.98,-1.03,-0.45,-211.65,-402.60,27.1
2026/04/22 21:51:33.60,IMU,-45.90,-38.57,-1004.88,-2.19,-0.11,3.11,-4.35,-215.25,-398.40,27.2
2026/04/22 21:51:33.70,IMU,-51.76,-40.04,-1019.04,1.24,0.02,1.21,-1.35,-213.30,-403.05,27.5
2026/04/22 21:51:33.80,IMU,-51.27,-35.16,-1000.00,1.86,-1.13,-0.61,-1.65,-212.70,-402.60,27.1
2026/04/22 21:51:33.90,IMU,-62.99,-45.90,-1015.14,1.10,-5.04,0.94,-0.15,-213.15,-402.60,27.5
2026/04/22 21:51:34.00,IMU,-58.59,-34.67,-1034.67,0.12,1.40,-3.21,-1.65,-211.95,-403.65,27.5
2026/04/22 21:51:34.11,IMU,-37.11,-20.02,-1011.72,2.83,-3.82,-2.58,-0.60,-213.30,-403.80,27.5
2026/04/22 21:51:34.21,IMU,-50.29,-46.88,-1019.53,-2.05,0.31,-0.35,-0.15,-213.90,-401.85,27.5
2026/04/22 21:51:34.31,IMU,-65.92,-48.34,-1030.27,0.72,-0.18,6.08,-1.20,-213.15,-401.10,27.3
2026/04/22 21:51:34.41,IMU,-28.81,-35.64,-999.51,1.69,-1.15,-0.01,-0.45,-212.40,-400.80,27.3
2026/04/22 21:51:34.51,IMU,-57.13,-41.99,-1005.37,0.08,-2.21,-0.53,-2.10,-213.75,-402.30,27.5
2026/04/22 21:51:34.61,IMU,-60.55,-38.09,-1028.32,-0.87,1.15,2.22,-0.45,-211.95,-402.90,27.3
2026/04/22 21:51:34.71,IMU,-57.62,-40.53,-1002.44,0.66,1.25,0.61,-0.15,-214.20,-401.85,27.3
2026/04/22 21:51:34.81,IMU,-70.80,-39.06,-1011.72,-0.41,0.89,3.22,-1.35,-213.30,-401.70,27.5
2026/04/22 21:51:34.91,IMU,-56.15,-27.83,-1007.32,-0.71,-0.73,-5.02,-0.45,-211.65,-403.20,27.5
2026/04/22 21:51:35.01,IMU,-32.71,-40.04,-1010.74,-3.49,5.93,-0.90,-0.45,-212.40,-402.60,27.3
2026/04/22 21:51:35.11,IMU,-26.86,-25.39,-1029.30,-3.28,11.63,-5.59,-1.95,-212.40,-402.90,27.3
2026/04/22 21:51:35.21,IMU,-44.92,-15.63,-1024.41,-2.67,0.15,-0.23,-1.05,-210.60,-403.80,27.6
2026/04/22 21:51:35.31,IMU,-28.81,-38.09,-1001.95,-2.48,3.97,0.41,-2.55,-212.55,-403.05,27.6
2026/04/22 21:51:35.41,IMU,-34.67,-9.28,-1024.90,0.91,-2.06,-1.15,-2.70,-211.95,-403.20,27.5
2026/04/22 21:51:35.51,IMU,-39.06,-28.32,-1005.86,4.44,-5.92,3.42,-2.55,-212.10,-403.50,27.5
2026/04/22 21:51:35.61,IMU,-47.36,-41.99,-1013.67,1.28,-1.66,2.71,-3.00,-212.40,-401.85,27.5
2026/04/22 21:51:35.71,IMU,-47.85,-46.39,-1011.72,3.60,-3.34,-0.67,-2.10,-212.10,-403.05,27.5
2026/04/22 21:51:35.81,IMU,-55.18,-48.83,-1027.83,1.28,-2.96,-2.60,-1.80,-214.05,-402.75,27.5
2026/04/22 21:51:35.91,IMU,-68.36,-55.18,-1024.41,0.95,-3.31,1.32,-1.80,-213.30,-402.00,27.5
2026/04/22 21:51:36.01,IMU,-73.73,-44.43,-1004.39,2.80,-2.34,1.43,-0.45,-213.45,-401.85,27.5
2026/04/22 21:51:36.11,IMU,-63.96,-57.13,-1015.14,2.20,-5.11,1.60,-0.90,-214.65,-401.10,27.5
2026/04/22 21:51:36.21,IMU,-121.58,-79.59,-1039.06,8.16,-11.15,-3.76,0.30,-214.80,-402.30,27.3
2026/04/22 21:51:36.31,IMU,-77.15,-54.69,-999.02,-0.10,-2.27,0.66,1.05,-214.80,-402.30,27.6
2026/04/22 21:51:36.41,IMU,-87.40,-48.34,-1014.16,-0.77,1.89,0.68,1.35,-214.05,-400.50,27.5
2026/04/22 21:51:36.51,IMU,-103.03,-54.69,-1002.93,-1.53,-0.95,-0.50,0.90,-213.90,-401.40,27.6
2026/04/22 21:51:36.61,IMU,-88.38,-57.62,-1013.67,2.19,-2.56,0.05,1.20,-213.45,-400.80,27.5
2026/04/22 21:51:36.71,IMU,-99.61,-58.59,-1025.88,3.15,-3.47,-0.96,1.35,-214.05,-400.95,27.5
2026/04/22 21:51:36.81,IMU,-108.89,-73.73,-1013.67,-0.77,4.44,1.45,0.60,-214.80,-401.70,27.3
2026/04/22 21:51:36.91,IMU,-102.05,-65.43,-1026.37,0.05,1.38,1.89,1.35,-214.05,-400.95,27.3
2026/04/22 21:51:37.01,IMU,-90.82,-62.50,-1008.30,-0.41,2.26,0.89,1.05,-213.00,-402.30,27.6
2026/04/22 21:51:37.11,IMU,-91.80,-71.29,-1017.09,2.55,-1.89,1.05,-0.30,-214.50,-401.25,27.5
2026/04/22 21:51:37.21,IMU,-115.23,-72.27,-1010.25,0.51,2.61,-1.90,2.10,-214.50,-400.95,27.5
2026/04/22 21:51:37.32,IMU,-82.52,-67.38,-1017.09,-6.23,4.35,2.21,1.05,-214.80,-401.25,27.5
2026/04/22 21:51:37.42,IMU,-77.64,-63.96,-1010.25,-2.44,5.63,-1.04,0.90,-214.95,-400.80,27.6
2026/04/22 21:51:37.52,IMU,-68.85,-42.48,-1007.81,-0.63,1.98,-0.89,0.90,-211.95,-402.15,27.6
2026/04/22 21:51:37.62,IMU,-67.38,-58.11,-1012.70,-2.37,3.92,-0.58,0.60,-213.30,-401.70,27.8
2026/04/22 21:51:37.72,IMU,-122.07,-62.99,-1011.72,0.71,0.95,-6.00,0.60,-213.30,-402.00,27.5
2026/04/22 21:51:37.82,IMU,-62.50,-37.11,-981.45,17.48,19.65,5.69,-0.45,-211.95,-401.85,27.6
2026/04/22 21:51:37.92,IMU,-43.95,-60.06,-1027.34,-0.81,5.37,10.36,-1.80,-213.00,-402.75,27.7
2026/04/22 21:51:38.02,IMU,-33.69,-71.29,-1005.37,0.23,-3.11,-2.44,-1.80,-212.55,-400.95,27.7
2026/04/22 21:51:38.12,IMU,-45.90,-85.45,-1005.86,-0.29,-2.50,-3.92,-1.20,-210.45,-400.80,27.6
2026/04/22 21:51:38.22,IMU,-33.69,-55.18,-1021.97,-0.70,-0.48,2.60,-0.30,-213.75,-400.50,27.4
2026/04/22 21:51:38.32,IMU,-51.76,-77.15,-1020.51,-2.80,2.19,1.07,0.90,-211.95,-397.80,27.6
2026/04/22 21:51:38.42,IMU,-44.43,-58.59,-1011.23,0.31,-0.46,-1.82,-0.45,-210.90,-400.05,27.8
2026/04/22 21:51:38.52,IMU,-23.93,-42.97,-1000.00,-1.95,1.56,2.47,0.00,-211.80,-399.45,27.7
2026/04/22 21:51:38.62,IMU,-58.11,-52.73,-1016.60,-0.70,-3.21,1.04,0.30,-211.35,-399.45,27.6
2026/04/22 21:51:38.72,IMU,-64.45,-103.03,-1045.90,4.26,1.82,-1.95,-2.10,-210.30,-396.60,27.5
2026/04/22 21:51:38.82,IMU,-67.38,-59.08,-1015.14,0.71,-1.77,3.92,1.80,-210.30,-399.45,27.5
2026/04/22 21:51:38.92,IMU,-37.11,-53.22,-1038.09,0.22,5.00,2.08,1.20,-209.25,-399.30,27.9
2026/04/22 21:51:39.02,IMU,-54.69,-43.46,-1037.60,-4.76,7.24,0.68,0.45,-209.25,-400.35,27.6
2026/04/22 21:51:39.12,IMU,-15.63,-18.55,-1000.98,-10.94,13.17,-1.00,0.00,-207.60,-402.30,27.7
2026/04/22 21:51:39.22,IMU,-17.09,10.25,-1016.11,-2.37,5.26,-0.31,-1.20,-206.70,-402.15,27.8
2026/04/22 21:51:39.32,IMU,23.93,-4.39,-1020.02,-3.81,14.79,2.24,-1.65,-205.95,-402.60,27.5
2026/04/22 21:51:39.42,IMU,48.34,-4.39,-1062.50,-1.76,10.58,-5.45,-2.55,-207.60,-404.25,27.6
2026/04/22 21:51:39.52,IMU,71.78,13.67,-1035.16,-6.89,21.35,3.42,-3.30,-206.85,-404.85,27.5
2026/04/22 21:51:39.62,IMU,125.49,7.81,-993.65,-3.01,7.66,4.44,-5.70,-207.00,-406.50,27.5
2026/04/22 21:51:39.73,IMU,126.46,19.04,-946.29,3.58,-4.69,-5.30,-8.70,-206.55,-400.95,27.6
2026/04/22 21:51:39.83,IMU,122.07,32.71,-1015.14,-5.49,5.21,-1.91,-5.25,-206.25,-405.15,27.5
2026/04/22 21:51:39.93,IMU,110.35,31.74,-1017.09,-6.57,12.54,5.92,-7.80,-204.75,-401.40,27.6
2026/04/22 21:51:40.03,IMU,155.76,47.36,-992.19,-6.44,12.01,0.21,-7.80,-203.70,-406.20,27.6
2026/04/22 21:51:40.13,IMU,149.41,47.36,-1003.42,4.26,-2.05,1.83,-6.90,-204.60,-406.65,27.4
2026/04/22 21:51:40.23,IMU,194.34,62.50,-984.86,-0.51,0.33,0.57,-7.95,-203.10,-406.35,27.6
2026/04/22 21:51:40.33,IMU,171.39,49.32,-1003.91,-2.12,1.08,3.47,-7.35,-203.85,-406.65,27.5
2026/04/22 21:51:40.43,IMU,148.93,50.29,-996.58,0.53,-5.38,1.31,-6.90,-204.15,-406.05,27.5
2026/04/22 21:51:40.53,IMU,170.90,42.48,-1000.49,1.18,0.40,-1.08,-7.65,-204.60,-405.60,27.6
2026/04/22 21:51:40.63,IMU,160.64,37.11,-1004.88,1.53,0.82,1.37,-6.75,-203.25,-405.45,27.5
2026/04/22 21:51:40.73,IMU,155.76,57.13,-990.72,1.49,-3.75,-1.25,-8.55,-204.75,-405.45,27.6
2026/04/22 21:51:40.83,IMU,161.62,51.76,-983.40,0.69,-1.33,-0.29,-7.95,-203.40,-406.05,27.6
2026/04/22 21:51:40.93,IMU,143.07,40.53,-1010.74,2.50,-0.99,-1.40,-7.80,-203.70,-406.20,27.5
2026/04/22 21:51:41.03,IMU,166.99,35.64,-992.19,1.50,-3.05,0.10,-6.30,-203.70,-406.50,27.5
2026/04/22 21:51:41.13,IMU,155.27,55.66,-989.26,1.82,-0.69,-1.78,-6.60,-203.40,-406.05,27.5
2026/04/22 21:51:41.23,IMU,153.81,44.92,-1002.44,0.16,2.15,3.47,-6.60,-203.40,-406.05,27.5
2026/04/22 21:51:41.33,IMU,147.95,36.62,-1001.46,-0.37,0.92,1.47,-6.75,-203.70,-406.20,27.5
2026/04/22 21:51:41.43,IMU,156.25,48.34,-983.40,-2.91,0.60,1.28,-5.40,-204.90,-406.05,27.5
2026/04/22 21:51:41.53,IMU,164.06,17.58,-1022.95,1.20,10.41,1.23,-6.90,-203.10,-407.10,27.5
2026/04/22 21:51:41.63,IMU,142.58,50.78,-1005.37,-0.97,4.25,-5.22,-6.75,-203.70,-406.95,27.5
2026/04/22 21:51:41.73,IMU,169.92,71.78,-957.03,4.60,-3.14,-3.44,-8.40,-203.40,-405.30,27.8
2026/04/22 21:51:41.84,IMU,160.64,64.45,-998.54,-2.41,7.66,3.27,-7.65,-204.15,-405.60,27.6
2026/04/22 21:51:41.94,IMU,213.87,66.89,-981.45,-7.26,24.37,6.08,-9.75,-202.50,-406.50,27.6
2026/04/22 21:51:42.04,IMU,254.39,64.94,-965.33,-4.66,16.59,2.85,-10.35,-202.50,-406.50,27.6
2026/04/22 21:51:42.14,IMU,258.79,81.54,-958.01,-5.24,0.86,2.15,-12.75,-203.85,-406.65,27.3
2026/04/22 21:51:42.24,IMU,258.30,70.31,-975.59,4.73,-4.44,3.47,-10.80,-204.00,-408.30,27.6
2026/04/22 21:51:42.34,IMU,248.54,58.11,-993.65,4.94,-4.36,-1.22,-10.80,-202.50,-408.00,27.5
2026/04/22 21:51:42.44,IMU,221.68,65.43,-977.54,10.59,-6.95,-1.36,-9.75,-203.25,-407.25,27.5
2026/04/22 21:51:42.54,IMU,221.19,63.48,-977.54,1.08,-5.24,2.90,-9.15,-204.60,-406.35,27.5
2026/04/22 21:51:42.64,IMU,212.89,20.51,-995.61,2.54,0.82,0.80,-7.35,-205.65,-405.60,27.6
2026/04/22 21:51:42.74,IMU,216.80,54.69,-984.86,1.88,-2.01,-0.38,-9.45,-204.60,-406.05,27.6
2026/04/22 21:51:42.84,IMU,213.38,53.71,-985.84,-0.11,0.26,-1.18,-9.45,-203.85,-406.35,27.6
2026/04/22 21:51:42.94,IMU,218.75,42.48,-978.03,2.63,2.11,2.37,-9.15,-204.15,-407.10,27.3
2026/04/22 21:51:43.05,IMU,221.68,48.83,-986.82,0.99,0.39,2.65,-8.25,-204.75,-405.75,27.2
2026/04/22 21:51:43.15,IMU,210.94,49.32,-979.98,1.56,-1.15,2.41,-9.00,-205.50,-406.20,27.4
2026/04/22 21:51:43.25,IMU,197.75,22.95,-1004.88,6.14,-5.11,0.01,-7.65,-205.35,-406.65,27.5
2026/04/22 21:51:43.35,IMU,219.73,33.69,-985.35,1.98,1.63,-2.17,-7.50,-205.20,-406.50,27.5
2026/04/22 21:51:43.45,IMU,215.33,13.67,-994.14,2.82,-0.41,-2.60,-7.80,-206.70,-406.95,27.5
2026/04/22 21:51:43.55,IMU,210.94,26.37,-983.40,0.85,0.41,0.92,-10.20,-205.35,-406.05,27.5
2026/04/22 21:51:43.65,IMU,231.93,30.27,-992.68,0.26,2.44,1.53,-9.15,-206.10,-404.55,27.5
2026/04/22 21:51:43.75,IMU,198.73,24.90,-1006.84,-0.31,1.92,-3.00,-9.00,-205.20,-405.15,27.1
2026/04/22 21:51:43.85,IMU,210.45,21.97,-1008.30,-2.31,9.52,0.53,-9.30,-205.50,-405.15,27.5
2026/04/22 21:51:43.95,IMU,211.43,44.43,-1046.88,0.05,2.20,0.62,-10.05,-205.20,-406.20,27.3
2026/04/22 21:51:44.05,IMU,218.26,19.04,-1012.70,-3.70,-4.69,-0.15,-9.90,-204.60,-404.85,27.3
2026/04/22 21:51:44.15,IMU,221.68,20.51,-979.00,-1.05,0.90,-4.16,-9.90,-204.15,-407.40,27.3
2026/04/22 21:51:44.25,IMU,202.64,47.85,-992.68,4.15,-5.55,1.24,-9.45,-204.15,-406.35,27.3
2026/04/22 21:51:44.35,IMU,215.33,35.16,-985.84,-1.55,1.65,0.53,-8.55,-204.75,-406.95,27.5
2026/04/22 21:51:44.45,IMU,206.54,39.06,-1004.39,0.06,4.69,2.62,-9.00,-204.75,-405.75,27.5
2026/04/22 21:51:44.55,IMU,202.15,35.64,-986.82,3.83,-2.22,-3.34,-8.55,-205.20,-405.15,27.5
2026/04/22 21:51:44.65,IMU,213.38,35.16,-996.09,0.35,0.22,-0.85,-9.15,-204.90,-406.05,27.5
2026/04/22 21:51:44.75,IMU,227.54,44.92,-972.17,0.69,-1.86,1.10,-9.75,-205.50,-405.15,27.6
2026/04/22 21:51:44.85,IMU,190.92,36.62,-994.63,0.28,-1.33,0.05,-7.80,-205.20,-405.15,27.3
2026/04/22 21:51:44.95,IMU,207.52,48.34,-983.40,0.27,-3.66,-3.66,-9.90,-203.10,-406.65,27.3
2026/04/22 21:51:45.05,IMU,195.31,30.76,-980.47,0.89,-2.02,2.98,-7.65,-204.60,-406.35,27.1
2026/04/22 21:51:45.15,IMU,228.52,40.53,-979.98,0.83,1.11,-0.65,-8.70,-204.90,-406.65,27.5
2026/04/22 21:51:45.25,IMU,216.80,26.37,-983.40,-4.78,2.26,1.17,-7.50,-204.75,-406.50,27.3
2026/04/22 21:51:45.35,IMU,189.45,53.22,-981.93,2.45,-3.25,4.36,-9.00,-205.95,-406.95,27.3
2026/04/22 21:51:45.45,IMU,205.57,27.34,-985.84,-4.61,8.17,7.08,-7.80,-204.75,-406.95,27.4
2026/04/22 21:51:45.55,IMU,210.94,41.02,-1016.60,1.45,2.37,-7.12,-8.55,-204.75,-405.15,27.3
2026/04/22 21:51:45.65,IMU,264.16,86.43,-915.53,-1.99,4.06,0.37,-10.65,-203.40,-406.05,27.3
2026/04/22 21:51:45.75,IMU,228.03,39.55,-1022.95,-19.70,13.65,-3.71,-9.75,-203.25,-408.30,27.0
2026/04/22 21:51:45.85,IMU,279.30,89.36,-921.39,-4.15,5.30,1.11,-12.30,-202.50,-404.70,27.5
2026/04/22 21:51:45.95,IMU,263.67,85.94,-979.49,1.34,-1.31,2.25,-9.30,-202.80,-408.00,27.1
2026/04/22 21:51:46.06,IMU,286.62,76.17,-938.48,3.85,-2.15,-1.27,-10.95,-201.90,-408.90,27.3
2026/04/22 21:51:46.16,IMU,283.20,87.89,-958.98,-1.43,1.33,-1.74,-10.95,-201.90,-408.45,27.0
2026/04/22 21:51:46.26,IMU,250.98,84.96,-967.29,-1.82,-0.23,3.82,-11.10,-202.05,-406.95,27.4
2026/04/22 21:51:46.36,IMU,283.20,81.54,-974.61,0.47,-0.15,-0.79,-11.40,-202.65,-407.10,27.2
2026/04/22 21:51:46.46,IMU,265.63,84.47,-962.40,0.30,0.76,-2.08,-11.10,-202.05,-408.30,27.2
2026/04/22 21:51:46.56,IMU,251.95,78.12,-979.49,0.18,-0.24,0.84,-12.45,-201.15,-404.85,27.3
2026/04/22 21:51:46.66,IMU,246.09,76.66,-993.65,-2.96,1.79,-1.08,-11.40,-199.95,-407.85,27.1
2026/04/22 21:51:46.76,IMU,250.00,75.20,-976.07,0.64,-1.27,1.51,-10.65,-202.65,-408.15,27.5
2026/04/22 21:51:46.87,IMU,267.09,78.12,-969.73,0.78,-1.34,-0.40,-14.40,-204.45,-402.90,27.3
2026/04/22 21:51:46.97,IMU,267.09,83.98,-975.59,-0.26,-1.01,-0.19,-10.35,-203.25,-407.55,27.3
2026/04/22 21:51:47.07,IMU,235.35,69.34,-983.89,0.98,-1.18,-0.08,-9.75,-203.25,-406.95,27.3
2026/04/22 21:51:47.17,IMU,275.39,66.41,-972.66,-0.71,1.62,1.92,-10.05,-203.70,-406.50,27.0
2026/04/22 21:51:47.27,IMU,252.44,66.41,-969.73,0.20,-4.26,-3.19,-9.15,-202.65,-408.45,27.1
2026/04/22 21:51:47.37,IMU,288.57,91.80,-947.27,-2.41,2.54,5.76,-11.55,-203.25,-406.20,26.9
2026/04/22 21:51:47.47,IMU,252.44,82.03,-987.79,-4.64,6.32,3.25,-11.85,-201.75,-405.45,27.3
2026/04/22 21:51:47.57,IMU,261.23,84.96,-978.52,-1.21,-4.02,-2.15,-10.95,-202.65,-406.65,27.4
2026/04/22 21:51:47.67,IMU,275.39,92.29,-954.59,-1.79,0.18,3.66,-11.85,-201.75,-408.00,27.0
2026/04/22 21:51:47.77,IMU,241.70,74.22,-974.12,0.72,-2.57,-3.27,-11.40,-203.10,-407.40,27.0
2026/04/22 21:51:47.87,IMU,247.56,72.27,-966.80,-0.77,1.69,2.21,-10.65,-202.35,-407.85,27.2
2026/04/22 21:51:47.97,IMU,254.39,74.22,-969.24,1.21,-0.47,0.86,-10.20,-201.90,-407.85,27.0
2026/04/22 21:51:48.07,IMU,251.46,78.61,-974.61,1.66,-2.36,-1.44,-11.85,-202.05,-406.95,27.2
2026/04/22 21:51:48.17,IMU,253.42,72.75,-981.45,2.27,-0.04,-3.88,-10.35,-202.80,-408.30,27.2
2026/04/22 21:51:48.27,IMU,240.72,78.12,-965.33,-0.99,-0.05,3.32,-10.95,-202.35,-405.30,26.8
2026/04/22 21:51:48.37,IMU,228.03,71.78,-974.61,-2.44,-0.08,-0.89,-9.75,-202.80,-408.30,27.0
2026/04/22 21:51:48.47,IMU,245.61,88.38,-980.96,0.60,0.11,1.80,-10.65,-203.40,-407.85,26.8
2026/04/22 21:51:48.57,IMU,242.19,77.64,-984.38,2.50,-0.92,-2.03,-9.75,-204.00,-406.95,27.1
2026/04/22 21:51:48.68,IMU,238.77,71.78,-980.96,-0.18,0.69,0.78,-9.90,-202.35,-406.65,27.0
2026/04/22 21:51:48.78,IMU,236.82,82.03,-979.49,-0.36,-3.79,-2.03,-9.45,-202.65,-404.85,27.2
2026/04/22 21:51:48.88,IMU,250.00,66.41,-966.31,1.45,0.75,0.57,-9.15,-203.85,-406.65,27.0
2026/04/22 21:51:48.98,IMU,244.63,60.55,-972.17,0.67,3.18,-1.64,-9.15,-202.65,-406.65,27.0
2026/04/22 21:51:49.08,IMU,243.65,75.20,-985.35,-5.14,15.31,3.67,-10.95,-203.10,-407.10,27.2
2026/04/22 21:51:49.18,IMU,251.95,53.71,-1051.27,-38.45,44.76,-7.49,-10.05,-201.30,-408.30,27.1
2026/04/22 21:51:49.28,IMU,449.22,177.25,-742.19,-31.01,27.61,4.72,-15.60,-196.05,-410.55,27.2
2026/04/22 21:51:49.38,IMU,370.61,263.18,-884.77,-16.20,-5.02,-22.50,-18.90,-193.80,-412.35,26.9
2026/04/22 21:51:49.48,IMU,272.95,227.05,-943.85,36.13,-26.39,-47.15,-17.25,-193.95,-412.05,27.3
2026/04/22 21:51:49.58,IMU,230.47,83.50,-1015.14,57.29,-8.63,20.53,-16.65,-197.10,-409.80,27.1
2026/04/22 21:51:49.68,IMU,246.09,102.05,-684.57,-41.06,-4.71,-27.99,-18.75,-199.65,-407.40,27.2
2026/04/22 21:51:49.78,IMU,352.05,191.89,-1085.94,-70.15,-15.54,13.52,-15.90,-192.60,-412.35,27.1
2026/04/22 21:51:49.88,IMU,242.68,305.18,-895.02,48.27,0.06,-17.38,-15.45,-189.75,-413.55,27.0
2026/04/22 21:51:49.98,IMU,366.21,230.96,-903.81,9.53,17.79,-11.82,-18.00,-193.95,-411.45,27.2
2026/04/22 21:51:50.08,IMU,292.48,242.68,-954.10,-9.36,-6.53,8.73,-18.45,-195.30,-410.55,27.1
2026/04/22 21:51:50.18,IMU,249.51,261.23,-992.68,-23.60,23.44,-9.97,-17.55,-193.95,-410.25,27.0
2026/04/22 21:51:50.28,IMU,344.24,258.79,-937.01,68.91,89.62,-31.44,-22.95,-191.85,-411.15,26.8
2026/04/22 21:51:50.38,IMU,727.05,34.67,-746.09,63.51,-50.09,42.58,-25.65,-193.20,-409.20,27.0
2026/04/22 21:51:50.48,IMU,151.37,141.11,-1013.67,3.92,-26.60,14.29,-20.40,-200.55,-408.75,26.8
2026/04/22 21:51:50.58,IMU,194.82,115.23,-986.82,16.38,-28.99,39.44,-15.75,-202.35,-408.90,27.1
2026/04/22 21:51:50.68,IMU,221.19,85.45,-970.21,15.69,-34.76,-4.34,-14.10,-204.45,-409.05,27.1
2026/04/22 21:51:50.78,IMU,4.88,-71.29,-1416.02,31.08,-88.22,0.33,-9.00,-205.95,-408.30,27.1
2026/04/22 21:51:50.89,IMU,76.17,25.39,-1035.16,-0.27,-1.10,-2.28,-6.30,-206.70,-405.45,27.0
2026/04/22 21:51:50.99,IMU,61.04,34.67,-1030.27,-6.92,16.42,0.18,-7.05,-205.20,-406.95,27.0
2026/04/22 21:51:51.09,IMU,228.52,109.37,-740.23,-28.76,58.11,4.05,-12.30,-204.00,-409.05,26.8
2026/04/22 21:51:51.19,IMU,187.50,104.49,-995.61,-0.56,0.89,2.10,-14.85,-204.45,-409.05,27.1
2026/04/22 21:51:51.29,IMU,180.66,79.59,-1040.04,2.15,-5.94,-0.56,-12.60,-203.70,-409.80,27.1
2026/04/22 21:51:51.39,IMU,189.94,93.75,-993.65,-3.29,4.04,0.00,-12.45,-203.85,-408.45,27.2
2026/04/22 21:51:51.49,IMU,185.06,97.17,-979.98,-1.53,5.18,0.15,-13.35,-202.05,-409.35,27.0
2026/04/22 21:51:51.59,IMU,188.48,78.12,-997.56,-0.37,-1.34,-1.03,-13.65,-202.50,-408.75,27.0
2026/04/22 21:51:51.69,IMU,190.92,89.84,-989.75,-1.33,2.05,0.98,-14.25,-203.40,-407.85,27.0
2026/04/22 21:51:51.80,IMU,184.57,87.40,-993.65,0.74,-0.66,1.98,-15.15,-203.25,-410.55,26.8
2026/04/22 21:51:51.90,IMU,188.48,88.87,-982.42,-0.92,2.19,1.57,-12.60,-203.70,-409.35,27.0
2026/04/22 21:51:52.00,IMU,183.59,95.21,-976.07,-0.98,0.38,-1.24,-14.70,-203.40,-410.25,27.0
2026/04/22 21:51:52.10,IMU,182.62,82.52,-977.05,1.01,-2.27,0.82,-12.75,-203.40,-409.95,27.0
2026/04/22 21:51:52.20,IMU,179.69,99.61,-996.58,1.97,0.15,1.36,-13.95,-201.60,-409.65,26.7
2026/04/22 21:51:52.30,IMU,189.94,87.89,-994.14,-1.12,-0.84,1.56,-13.05,-202.05,-410.55,27.0
2026/04/22 21:51:52.40,IMU,175.29,83.01,-996.09,0.44,-3.06,-0.12,-13.20,-203.40,-409.20,26.9
2026/04/22 21:51:52.50,IMU,189.45,86.43,-999.02,1.18,-0.01,0.56,-13.50,-201.60,-410.25,26.9
2026/04/22 21:51:52.60,IMU,179.69,94.73,-1014.16,-0.15,0.40,-0.99,-14.10,-203.25,-409.05,27.2
2026/04/22 21:51:52.70,IMU,175.78,84.96,-993.16,1.33,0.38,-0.63,-14.25,-202.35,-409.65,26.9
2026/04/22 21:51:52.80,IMU,174.80,76.66,-997.56,0.30,2.56,0.09,-14.70,-201.15,-409.95,26.8
2026/04/22 21:51:52.90,IMU,180.66,81.05,-1002.44,1.50,-4.35,0.48,-13.35,-202.80,-409.35,27.1
2026/04/22 21:51:53.00,IMU,171.39,89.36,-984.86,1.50,0.24,0.44,-16.50,-204.15,-405.60,26.8
2026/04/22 21:51:53.10,IMU,179.20,78.12,-993.65,-1.23,2.56,0.00,-14.25,-203.10,-410.70,26.7
2026/04/22 21:51:53.20,IMU,168.95,90.33,-1009.28,1.20,-0.73,-0.10,-13.20,-203.10,-408.90,26.9
2026/04/22 21:51:53.30,IMU,168.95,93.26,-1003.91,-0.65,0.68,1.93,-13.65,-203.70,-410.55,26.8
2026/04/22 21:51:53.40,IMU,167.97,83.50,-1003.91,0.08,1.77,-1.08,-13.65,-201.75,-409.35,26.9
2026/04/22 21:51:53.50,IMU,161.62,84.47,-1002.44,0.44,0.02,-1.09,-12.00,-201.15,-409.65,27.2
2026/04/22 21:51:53.60,IMU,181.15,90.82,-977.54,0.47,1.56,0.53,-13.20,-203.10,-410.25,26.7
2026/04/22 21:51:53.70,IMU,173.34,91.80,-994.14,-0.26,1.30,0.70,-13.95,-203.40,-409.65,27.1
2026/04/22 21:51:53.80,IMU,183.59,90.82,-998.05,-0.92,0.94,2.02,-12.75,-201.15,-409.20,26.8
2026/04/22 21:51:53.90,IMU,180.18,94.73,-988.77,-0.09,0.53,-0.94,-14.25,-202.35,-409.95,26.8
2026/04/22 21:51:54.01,IMU,175.29,83.50,-978.03,-0.85,3.02,-1.65,-15.15,-204.00,-406.35,27.1
2026/04/22 21:51:54.11,IMU,174.32,93.75,-985.35,1.77,-1.93,0.76,-12.75,-203.40,-409.95,26.8
2026/04/22 21:51:54.21,IMU,166.50,85.45,-997.07,0.47,2.14,-1.19,-11.85,-201.75,-409.35,26.8
2026/04/22 21:51:54.31,IMU,171.88,78.61,-983.40,0.69,-3.11,1.20,-13.50,-203.10,-409.65,26.8
2026/04/22 21:51:54.41,IMU,157.71,93.26,-985.84,-0.65,-4.51,1.77,-13.50,-201.90,-409.95,26.9
2026/04/22 21:51:54.51,IMU,168.46,81.54,-982.42,1.51,2.23,0.80,-13.65,-201.75,-409.80,26.9
2026/04/22 21:51:54.61,IMU,168.46,81.05,-980.96,-0.23,0.39,-0.50,-13.05,-202.05,-410.10,26.8
2026/04/22 21:51:54.71,IMU,159.67,82.52,-992.19,1.43,-1.52,0.35,-11.70,-202.65,-409.95,26.9
2026/04/22 21:51:54.81,IMU,163.09,85.45,-1004.88,-0.67,1.18,1.63,-13.35,-203.25,-409.05,26.8
2026/04/22 21:51:54.91,IMU,169.92,86.43,-983.89,-0.82,2.16,-0.16,-13.05,-202.50,-409.05,26.9
2026/04/22 21:51:55.01,IMU,178.22,92.77,-985.35,0.37,0.56,1.51,-13.50,-201.60,-408.45,26.9
2026/04/22 21:51:55.11,IMU,165.04,86.91,-972.66,1.02,0.74,-1.40,-12.60,-203.70,-410.10,26.9
2026/04/22 21:51:55.21,IMU,162.60,81.54,-1000.98,2.12,-0.18,-0.37,-13.20,-202.65,-411.00,26.9
2026/04/22 21:51:55.31,IMU,174.32,83.50,-985.35,2.79,2.05,-1.38,-12.30,-202.80,-409.80,26.7
2026/04/22 21:51:55.41,IMU,155.76,90.33,-973.14,1.60,1.56,1.24,-13.95,-202.65,-410.25,26.8
2026/04/22 21:51:55.51,IMU,175.29,78.12,-971.68,1.90,2.10,0.81,-12.60,-203.70,-409.35,26.5
2026/04/22 21:51:55.61,IMU,175.29,78.12,-967.29,-0.15,0.56,-1.55,-12.30,-202.05,-410.55,26.8
2026/04/22 21:51:55.71,IMU,164.55,81.05,-976.07,0.80,-1.23,0.05,-13.20,-201.90,-410.70,26.7
2026/04/22 21:51:55.81,IMU,167.97,103.03,-983.89,0.40,-0.93,-2.71,-12.75,-203.40,-409.95,27.0
2026/04/22 21:51:55.91,IMU,167.97,91.80,-1008.79,0.04,2.06,1.75,-13.20,-203.10,-409.20,27.0
2026/04/22 21:51:56.01,IMU,185.55,93.26,-996.09,-1.22,2.29,1.60,-11.55,-202.50,-410.55,26.7
2026/04/22 21:51:56.11,IMU,181.64,89.84,-998.05,-0.10,1.35,-0.12,-13.05,-201.30,-409.80,26.9
2026/04/22 21:51:56.21,IMU,183.59,91.31,-1006.35,-1.05,2.69,-0.73,-13.05,-202.50,-410.55,26.7
2026/04/22 21:51:56.32,IMU,174.80,80.57,-1001.95,0.51,1.65,0.27,-12.00,-202.65,-409.95,26.9
2026/04/22 21:51:56.42,IMU,176.27,88.87,-1011.23,1.60,0.00,-0.71,-13.35,-204.45,-409.05,26.9
2026/04/22 21:51:56.52,IMU,174.32,85.94,-999.51,-0.60,1.25,0.06,-13.20,-203.40,-409.65,26.8
2026/04/22 21:51:56.62,IMU,187.99,88.38,-973.63,0.78,0.70,-0.66,-13.95,-202.65,-409.65,26.9
2026/04/22 21:51:56.72,IMU,176.76,87.89,-1017.09,-1.40,5.35,-0.23,-13.95,-203.85,-409.65,26.7
2026/04/22 21:51:56.82,IMU,194.82,100.59,-922.85,1.54,-4.19,1.39,-12.75,-202.35,-410.25,26.8
2026/04/22 21:51:56.92,IMU,161.13,96.68,-989.26,0.11,-0.79,3.54,-13.20,-202.35,-410.70,26.9
2026/04/22 21:51:57.02,IMU,185.55,86.43,-985.35,1.71,0.21,-1.18,-12.75,-203.10,-409.20,27.0
2026/04/22 21:51:57.12,IMU,181.15,89.36,-1000.00,-0.49,1.84,-2.16,-13.05,-203.25,-410.10,26.8
2026/04/22 21:51:57.22,IMU,178.22,91.80,-994.14,-0.82,-0.53,-0.24,-13.50,-203.40,-408.90,26.8
2026/04/22 21:51:57.33,IMU,185.55,88.87,-995.61,1.23,-0.89,1.82,-12.30,-201.30,-409.05,26.8
2026/04/22 21:51:57.43,IMU,175.78,88.87,-1003.91,2.33,-5.90,4.33,-13.50,-202.65,-411.00,26.8
2026/04/22 21:51:57.53,IMU,166.99,71.78,-1014.16,-0.08,-1.11,3.28,-11.70,-202.35,-409.20,26.9
2026/04/22 21:51:57.63,IMU,166.50,86.91,-979.98,-0.64,1.81,-0.90,-13.05,-201.75,-409.05,26.5
2026/04/22 21:51:57.73,IMU,153.81,93.75,-1018.07,2.04,-6.25,-0.69,-12.00,-202.65,-411.00,27.0
2026/04/22 21:51:57.83,IMU,159.67,88.38,-999.02,0.11,0.31,-0.79,-11.85,-204.00,-410.55,26.8
2026/04/22 21:51:57.93,IMU,155.27,82.52,-979.49,0.02,1.36,-1.27,-12.45,-202.35,-409.65,26.4
2026/04/22 21:51:58.03,IMU,152.34,78.12,-991.21,-1.14,0.54,-0.78,-12.75,-202.65,-411.00,26.8
2026/04/22 21:51:58.13,IMU,158.20,77.15,-976.56,-0.26,3.11,0.20,-11.40,-203.85,-409.95,26.8
2026/04/22 21:51:58.23,IMU,161.62,88.38,-995.12,1.95,-1.13,0.59,-12.60,-204.45,-410.10,26.9
2026/04/22 21:51:58.33,IMU,171.39,87.40,-994.14,-2.53,2.66,0.81,-11.70,-203.10,-411.00,26.7
2026/04/22 21:51:58.43,IMU,167.97,85.45,-991.21,0.88,-0.76,-0.01,-13.20,-202.65,-410.25,27.0
2026/04/22 21:51:58.53,IMU,184.08,81.05,-977.05,-0.01,1.92,1.73,-14.40,-203.70,-410.10,26.8
2026/04/22 21:51:58.63,IMU,176.76,83.01,-993.65,-1.46,4.09,3.62,-13.05,-203.70,-409.35,26.8
2026/04/22 21:51:58.73,IMU,173.34,88.87,-979.49,-0.43,0.62,0.04,-13.20,-203.85,-409.95,26.8
2026/04/22 21:51:58.83,IMU,173.83,86.43,-994.63,-1.80,0.89,-0.04,-12.30,-204.00,-409.80,26.9
2026/04/22 21:51:58.93,IMU,184.08,87.89,-1001.95,-0.89,1.51,2.76,-13.20,-201.90,-410.70,26.6
2026/04/22 21:51:59.03,IMU,197.27,72.27,-979.98,-0.25,3.76,0.63,-13.05,-202.80,-408.75,26.6
2026/04/22 21:51:59.13,IMU,166.99,84.96,-986.33,-0.63,0.08,0.08,-16.65,-204.00,-406.95,26.5
2026/04/22 21:51:59.23,IMU,194.82,82.52,-979.98,1.33,-1.11,5.85,-13.05,-203.25,-408.75,26.7
2026/04/22 21:51:59.33,IMU,193.85,77.64,-981.45,3.10,-5.56,2.01,-13.05,-205.20,-410.55,26.8
2026/04/22 21:51:59.43,IMU,177.25,86.91,-983.89,0.82,0.03,1.24,-13.05,-203.25,-410.85,26.7
2026/04/22 21:51:59.53,IMU,174.32,68.85,-997.07,0.74,1.01,0.27,-12.00,-202.35,-409.65,26.8
2026/04/22 21:51:59.63,IMU,187.50,75.68,-1024.41,-1.75,1.48,1.98,-11.70,-203.40,-409.95,26.7
2026/04/22 21:51:59.73,IMU,194.34,79.59,-992.19,-0.47,0.18,0.93,-12.30,-203.25,-409.35,26.6
2026/04/22 21:51:59.83,IMU,188.48,80.57,-992.68,-2.02,3.31,-1.21,-11.70,-202.65,-410.25,26.8
2026/04/22 21:51:59.93,IMU,202.15,91.31,-977.54,-1.18,0.97,0.95,-13.35,-202.50,-411.15,26.6
2026/04/22 21:52:00.03,IMU,189.45,92.77,-982.42,2.06,-1.98,-0.34,-13.05,-203.70,-410.10,26.8
2026/04/22 21:52:00.13,IMU,166.99,68.36,-995.61,6.31,-13.76,0.85,-15.00,-204.90,-405.30,26.5
2026/04/22 21:52:00.23,IMU,161.13,78.12,-985.84,3.40,-8.92,-1.32,-13.05,-203.70,-409.05,26.8
2026/04/22 21:52:00.33,IMU,154.30,73.24,-967.29,0.58,-1.01,-1.08,-9.90,-203.40,-409.65,26.8
2026/04/22 21:52:00.44,IMU,152.83,63.48,-1008.79,3.40,1.02,1.02,-11.70,-203.85,-409.65,26.8
2026/04/22 21:52:00.54,IMU,144.53,67.87,-978.52,7.76,-15.21,-1.64,-11.10,-204.45,-409.35,26.8
2026/04/22 21:52:00.64,IMU,120.12,41.50,-1014.65,6.60,-13.31,-1.24,-8.25,-204.00,-407.55,26.9
2026/04/22 21:52:00.74,IMU,89.36,41.99,-1030.27,1.46,-4.32,2.64,-7.50,-205.20,-410.10,26.9
2026/04/22 21:52:00.84,IMU,116.70,46.39,-986.82,1.40,-1.82,-3.34,-9.15,-205.65,-407.40,26.6
2026/04/22 21:52:00.94,IMU,106.45,49.80,-992.19,5.24,-12.19,-6.06,-8.55,-205.95,-408.75,26.7
2026/04/22 21:52:01.04,IMU,76.66,57.62,-1000.49,-2.00,2.50,-4.21,-8.25,-204.75,-406.95,26.9
2026/04/22 21:52:01.15,IMU,98.63,57.13,-1028.81,-11.82,27.78,0.39,-10.95,-206.55,-404.25,26.6
2026/04/22 21:52:01.25,IMU,157.23,72.75,-984.38,-6.16,12.76,-4.87,-11.10,-203.25,-408.75,26.7
2026/04/22 21:52:01.35,IMU,162.60,70.31,-1016.60,-0.44,-3.07,1.41,-11.10,-204.45,-409.05,26.5
2026/04/22 21:52:01.45,IMU,161.62,100.59,-860.84,19.27,-33.91,13.27,-10.95,-203.40,-408.90,26.6
2026/04/22 21:52:01.55,IMU,102.05,52.73,-969.24,8.79,-21.08,3.71,-7.05,-205.95,-408.75,26.6
2026/04/22 21:52:01.65,IMU,62.99,21.97,-1013.67,7.35,-18.50,2.89,-5.25,-206.25,-406.95,26.9
2026/04/22 21:52:01.75,IMU,16.11,4.39,-1064.94,6.24,-6.79,-1.90,-4.35,-206.55,-406.35,26.8
2026/04/22 21:52:01.85,IMU,32.23,84.47,-1017.58,2.79,-4.98,0.40,-3.75,-207.00,-407.25,26.6
2026/04/22 21:52:01.95,IMU,9.77,16.60,-1031.74,-10.83,25.79,-1.90,-3.75,-209.70,-406.50,26.3
2026/04/22 21:52:02.05,IMU,48.34,17.09,-999.02,-16.31,35.62,6.53,-4.50,-208.20,-408.00,26.8
2026/04/22 21:52:02.15,IMU,79.59,11.23,-1012.21,0.78,-2.67,2.52,-4.50,-208.95,-408.30,26.6
2026/04/22 21:52:02.25,IMU,35.64,11.72,-1055.66,7.37,-20.72,1.29,-2.25,-210.45,-408.00,27.0
2026/04/22 21:52:02.35,IMU,32.23,5.37,-1038.09,1.94,-6.56,-5.66,-3.30,-209.55,-407.40,26.5
2026/04/22 21:52:02.45,IMU,7.81,21.48,-989.75,0.98,-3.96,-3.75,-3.30,-209.55,-407.10,26.8
2026/04/22 21:52:02.55,IMU,-10.25,23.44,-840.82,-4.23,4.82,7.17,-2.70,-206.70,-405.75,26.9
2026/04/22 21:52:02.65,IMU,-7.32,12.21,-991.70,8.16,-18.67,-0.89,-2.70,-209.70,-405.45,26.7
2026/04/22 21:52:02.75,IMU,0.98,0.00,-974.61,7.42,-12.79,-7.70,-1.20,-208.50,-404.40,26.9
2026/04/22 21:52:02.85,IMU,-22.46,-12.70,-968.75,3.19,-8.99,-4.37,-1.35,-210.60,-403.80,26.8
2026/04/22 21:52:02.95,IMU,-65.92,-22.46,-1010.74,0.11,-1.47,-0.47,0.00,-209.85,-403.80,26.6
2026/04/22 21:52:03.05,IMU,-70.80,-30.27,-981.93,-2.34,7.89,1.50,0.90,-210.45,-402.90,26.4
2026/04/22 21:52:03.15,IMU,-93.26,-32.71,-1003.91,7.95,-18.95,1.41,0.30,-209.55,-402.00,26.7
2026/04/22 21:52:03.26,IMU,-120.12,-49.80,-1034.67,6.05,-8.14,-0.61,1.05,-210.60,-402.75,26.7
2026/04/22 21:52:03.36,IMU,-60.55,-31.74,-996.58,-3.59,10.73,-0.35,0.90,-210.15,-401.40,27.0
2026/04/22 21:52:03.46,IMU,-57.62,-14.65,-967.77,7.79,-13.56,-1.73,0.15,-210.45,-400.05,26.5
2026/04/22 21:52:03.56,IMU,-72.75,-27.34,-1002.93,-5.48,13.61,-2.46,0.90,-210.45,-398.55,26.7
2026/04/22 21:52:03.66,IMU,-68.36,-36.13,-1017.58,0.20,0.33,1.65,-0.15,-209.70,-399.60,26.8
2026/04/22 21:52:03.76,IMU,-67.87,-35.16,-1015.63,0.33,3.11,-0.78,1.65,-208.50,-399.00,26.8
2026/04/22 21:52:03.86,IMU,-68.36,-30.27,-995.61,1.00,0.69,-0.82,2.10,-210.60,-399.15,26.9
2026/04/22 21:52:03.96,IMU,-70.80,-21.00,-1001.46,-2.45,6.65,1.34,1.05,-209.55,-398.10,26.4
2026/04/22 21:52:04.06,IMU,-57.62,-24.90,-1021.00,-6.33,12.92,2.17,1.65,-209.70,-397.80,26.7
2026/04/22 21:52:04.16,IMU,-49.32,-17.58,-996.58,1.86,-5.22,-1.95,-0.15,-209.70,-397.80,26.7
2026/04/22 21:52:04.26,IMU,-69.82,-21.48,-1014.16,-3.42,2.63,-0.29,2.10,-208.35,-398.70,26.8
2026/04/22 21:52:04.36,IMU,-69.34,-9.28,-1015.14,0.10,-1.05,0.82,1.95,-208.20,-399.30,26.6
2026/04/22 21:52:04.46,IMU,-38.09,-7.81,-998.05,-7.49,20.14,7.02,0.60,-208.35,-398.40,26.6
2026/04/22 21:52:04.56,IMU,-4.88,-1.46,-982.42,4.50,-7.69,9.02,2.70,-208.20,-399.60,26.5
2026/04/22 21:52:04.66,IMU,-50.29,-14.65,-995.12,6.95,-23.08,-0.02,3.00,-209.70,-398.25,26.7
2026/04/22 21:52:04.76,IMU,-99.12,-41.02,-1024.90,6.90,-12.04,-3.35,4.65,-209.10,-397.35,26.8
2026/04/22 21:52:04.86,IMU,-85.94,-36.13,-994.63,6.86,-18.84,-8.66,5.10,-210.30,-398.10,26.5
2026/04/22 21:52:04.96,IMU,-108.40,-31.74,-1011.23,3.31,-6.63,-0.80,5.70,-208.95,-396.45,26.7
2026/04/22 21:52:05.06,IMU,-77.15,-38.57,-984.38,-0.68,3.24,-0.33,5.25,-208.50,-398.25,26.7
2026/04/22 21:52:05.16,IMU,-82.52,-24.41,-1011.72,-1.05,2.70,-0.10,6.00,-210.15,-398.55,26.9
2026/04/22 21:52:05.26,IMU,-60.55,-32.23,-1016.11,-4.50,12.15,-2.92,4.50,-209.25,-399.60,26.7
2026/04/22 21:52:05.36,IMU,-52.25,-18.55,-1006.84,-3.44,10.01,-1.45,3.75,-209.25,-399.60,26.4
2026/04/22 21:52:05.46,IMU,-14.65,-3.91,-994.63,-11.55,27.09,1.68,2.85,-209.10,-402.00,26.8
2026/04/22 21:52:05.56,IMU,-0.49,5.37,-1017.58,3.77,-4.53,-1.00,1.80,-208.05,-401.25,26.5
2026/04/22 21:52:05.66,IMU,-21.00,-10.25,-1047.36,-2.53,-2.35,-6.76,2.10,-208.35,-402.30,26.7
2026/04/22 21:52:05.76,IMU,-36.62,-3.91,-1053.22,-2.77,2.91,-0.92,2.10,-209.55,-402.00,26.7
2026/04/22 21:52:05.86,IMU,-17.09,-0.98,-1016.60,5.21,-8.76,-0.28,1.65,-208.50,-402.90,26.6
2026/04/22 21:52:05.96,IMU,3.42,-6.84,-994.14,-2.62,4.99,0.79,3.75,-209.70,-402.15,26.8
2026/04/22 21:52:06.07,IMU,-8.79,0.98,-994.63,4.18,-6.63,-1.23,3.75,-208.20,-402.90,26.6
2026/04/22 21:52:06.17,IMU,-14.65,3.42,-991.70,4.04,-6.94,-0.30,4.20,-208.95,-402.15,26.8
2026/04/22 21:52:06.27,IMU,-41.02,-30.76,-1000.49,7.15,-16.84,-0.87,4.50,-208.20,-401.85,26.4
2026/04/22 21:52:06.37,IMU,-62.01,-28.32,-1013.18,-2.83,0.81,-0.42,6.30,-209.70,-400.35,26.6
2026/04/22 21:52:06.47,IMU,-63.96,-17.09,-1009.28,1.22,-3.23,-0.38,4.65,-209.85,-399.90,26.5
2026/04/22 21:52:06.57,IMU,-65.92,-29.79,-1015.14,3.37,-3.60,-0.08,5.10,-209.55,-400.20,26.6
2026/04/22 21:52:06.67,IMU,-74.22,-24.41,-1000.00,1.83,-2.98,-2.83,6.75,-208.95,-398.25,26.8
2026/04/22 21:52:06.77,IMU,-80.57,-28.32,-1000.98,2.47,-5.65,-2.42,6.90,-211.05,-398.40,26.4
2026/04/22 21:52:06.87,IMU,-107.91,-37.60,-1019.04,1.82,0.68,-2.22,6.15,-211.05,-400.95,26.5
2026/04/22 21:52:06.97,IMU,-98.14,-44.43,-996.58,-1.70,4.39,-1.85,6.30,-211.95,-399.00,26.9
2026/04/22 21:52:07.07,IMU,-71.78,-25.88,-1007.81,0.54,1.13,-0.45,5.70,-211.95,-400.05,26.9
2026/04/22 21:52:07.17,IMU,-62.99,-11.23,-998.05,1.21,-0.92,-0.70,4.50,-210.15,-400.35,26.8
2026/04/22 21:52:07.27,IMU,-69.82,-25.39,-1024.90,0.65,-0.62,-1.34,2.25,-211.95,-395.70,26.7
2026/04/22 21:52:07.37,IMU,-67.38,-21.48,-1010.74,1.63,-0.65,0.59,6.30,-210.15,-401.40,26.8
2026/04/22 21:52:07.47,IMU,-80.08,-23.93,-1009.77,-2.05,4.46,0.79,5.25,-209.70,-398.55,26.6
2026/04/22 21:52:07.57,IMU,-74.22,-21.00,-1014.16,-2.36,2.34,0.70,5.40,-209.85,-399.45,26.8
2026/04/22 21:52:07.67,IMU,-53.22,-18.07,-1031.74,-1.80,5.39,2.55,4.50,-209.70,-399.30,26.9
2026/04/22 21:52:07.77,IMU,-59.57,-12.70,-1004.88,-1.89,4.05,-0.77,5.85,-209.85,-400.50,26.6
2026/04/22 21:52:07.87,IMU,-65.43,1.95,-1035.16,-0.67,2.76,1.72,4.20,-210.15,-400.80,26.6
2026/04/22 21:52:07.97,IMU,-48.83,-8.30,-1033.20,-2.27,3.19,1.90,4.35,-210.60,-400.20,26.3
2026/04/22 21:52:08.07,IMU,-59.57,-21.48,-1020.51,-4.81,9.66,-1.35,5.10,-209.85,-401.70,26.5
2026/04/22 21:52:08.17,IMU,-23.44,15.63,-1015.14,-4.95,9.36,2.53,3.00,-208.95,-400.35,26.6
2026/04/22 21:52:08.27,IMU,-28.32,18.07,-1028.81,3.29,-2.44,-1.55,3.90,-208.80,-400.95,26.7
2026/04/22 21:52:08.37,IMU,-39.06,-0.49,-1013.67,2.25,-3.92,-1.11,3.75,-209.70,-401.40,26.3
2026/04/22 21:52:08.47,IMU,-45.90,0.49,-1008.79,1.69,-0.78,0.31,3.75,-209.70,-402.15,26.6
2026/04/22 21:52:08.57,IMU,-42.97,1.46,-1024.41,-0.93,4.79,1.07,4.95,-209.70,-401.10,26.7
2026/04/22 21:52:08.67,IMU,-17.09,8.79,-996.58,-0.32,0.05,0.49,2.85,-209.10,-401.70,27.1
2026/04/22 21:52:08.77,IMU,-24.90,4.88,-1017.09,-0.87,1.34,-0.30,3.75,-208.95,-401.10,26.7
2026/04/22 21:52:08.87,IMU,-35.16,-3.42,-1012.21,-0.04,2.67,2.85,2.55,-209.85,-402.30,26.3
2026/04/22 21:52:08.98,IMU,-24.41,9.77,-993.16,-1.84,2.98,0.24,2.25,-209.25,-401.85,26.4
2026/04/22 21:52:09.08,IMU,-4.88,15.63,-999.51,0.15,0.62,2.82,4.35,-210.30,-402.30,26.4
2026/04/22 21:52:09.18,IMU,-18.55,11.23,-981.45,2.88,-4.13,1.69,3.90,-209.85,-402.30,26.7
2026/04/22 21:52:09.28,IMU,-22.46,5.37,-1018.07,0.16,-1.18,0.64,3.00,-209.70,-402.90,26.4
2026/04/22 21:52:09.38,IMU,-34.18,-1.95,-1024.90,1.09,-1.21,-0.07,4.20,-209.70,-402.15,26.6
2026/04/22 21:52:09.48,IMU,-12.21,3.91,-994.14,-3.05,5.43,-0.53,3.90,-209.10,-402.75,26.6
2026/04/22 21:52:09.58,IMU,-6.35,11.23,-1006.35,-2.95,6.56,0.86,1.95,-209.70,-402.90,26.4
2026/04/22 21:52:09.68,IMU,-4.39,10.74,-1020.51,-1.04,2.86,-1.51,3.45,-209.25,-403.20,26.8
2026/04/22 21:52:09.78,IMU,-0.98,26.37,-1011.23,-0.12,1.63,0.47,1.65,-210.45,-402.15,26.6
2026/04/22 21:52:09.88,IMU,-0.49,14.65,-1031.74,0.02,-0.10,-0.15,1.95,-209.25,-402.90,26.6
2026/04/22 21:52:09.98,IMU,16.60,39.06,-1010.25,-2.76,3.92,-1.39,3.75,-209.25,-403.65,26.5
2026/04/22 21:52:10.08,IMU,20.02,23.93,-1018.07,2.05,-1.41,-0.48,2.25,-210.15,-403.20,26.4
2026/04/22 21:52:10.18,IMU,7.81,32.23,-995.61,0.87,-2.63,2.40,3.00,-210.90,-403.20,26.4
2026/04/22 21:52:10.28,IMU,20.02,25.88,-998.54,-1.52,-1.18,-1.44,3.45,-209.25,-402.15,26.4
2026/04/22 21:52:10.38,IMU,5.37,15.14,-1016.11,0.60,2.05,1.20,1.80,-209.55,-403.50,26.5
2026/04/22 21:52:10.48,IMU,17.58,16.11,-1018.55,0.31,-0.11,-0.46,2.25,-209.25,-401.85,26.4
2026/04/22 21:52:10.58,IMU,-2.93,20.02,-1029.79,2.42,-0.11,-0.40,2.55,-208.35,-402.75,26.6
2026/04/22 21:52:10.68,IMU,10.74,20.02,-1024.90,0.10,1.21,-0.09,1.05,-209.85,-403.80,26.6
2026/04/22 21:52:10.78,IMU,17.58,22.46,-1010.25,1.70,-1.63,2.76,2.85,-209.85,-401.25,26.5
2026/04/22 21:52:10.88,IMU,6.35,11.72,-1019.04,2.37,-0.73,-0.86,-0.60,-211.05,-399.90,26.2
2026/04/22 21:52:10.98,IMU,12.21,14.16,-1014.65,-1.08,2.66,0.63,2.70,-208.35,-403.50,26.5
2026/04/22 21:52:11.08,IMU,-2.44,15.14,-1031.74,-2.81,-0.73,0.09,2.85,-209.55,-402.75,26.8
2026/04/22 21:52:11.18,IMU,0.00,19.04,-1028.32,1.06,-2.44,0.15,3.60,-209.55,-403.50,26.3
2026/04/22 21:52:11.28,IMU,-8.79,25.39,-995.61,-0.10,-1.97,2.65,2.70,-209.70,-403.65,26.4
2026/04/22 21:52:11.38,IMU,6.35,21.97,-1017.09,-1.55,2.54,-0.06,3.75,-208.95,-402.90,26.4
2026/04/22 21:52:11.48,IMU,-0.98,26.37,-1043.95,-0.30,0.66,3.02,2.10,-208.80,-404.55,26.4
2026/04/22 21:52:11.58,IMU,-16.60,10.74,-980.96,0.37,-1.17,0.18,2.25,-208.95,-402.60,26.4
2026/04/22 21:52:11.68,IMU,-7.32,12.70,-1022.95,-0.26,1.66,2.48,1.95,-210.90,-401.85,26.6
2026/04/22 21:52:11.78,IMU,6.35,16.11,-1012.21,0.54,2.16,0.76,4.20,-208.50,-404.25,26.4
2026/04/22 21:52:11.88,IMU,-4.88,10.25,-1021.00,1.10,-3.80,-1.09,2.55,-209.85,-402.75,26.6
2026/04/22 21:52:11.98,IMU,-1.95,20.51,-998.54,3.22,-4.26,1.95,1.95,-208.95,-402.60,26.6
2026/04/22 21:52:12.09,IMU,-24.41,15.63,-1001.46,1.80,-0.24,-1.61,3.00,-208.95,-402.90,26.3
2026/04/22 21:52:12.19,IMU,-5.37,10.74,-993.16,-2.11,2.25,0.93,3.90,-208.80,-403.05,26.6
2026/04/22 21:52:12.29,IMU,-5.37,11.23,-1015.63,1.08,1.40,0.31,3.30,-209.55,-403.80,26.4
2026/04/22 21:52:12.39,IMU,4.88,18.07,-1016.60,0.79,0.99,-1.45,1.80,-211.35,-399.90,26.5
2026/04/22 21:52:12.49,IMU,-11.72,8.30,-1015.63,1.94,0.68,-0.15,4.50,-210.45,-402.90,26.3
2026/04/22 21:52:12.59,IMU,-14.65,9.28,-1008.30,0.42,-0.49,0.20,2.10,-210.30,-402.75,26.4
2026/04/22 21:52:12.69,IMU,-0.49,17.09,-1032.71,1.40,-0.02,-2.46,3.75,-211.20,-402.15,26.4
2026/04/22 21:52:12.79,IMU,5.86,13.18,-1026.86,-3.07,6.05,-7.81,3.30,-211.05,-403.80,26.3
2026/04/22 21:52:12.90,IMU,-14.16,19.53,-1010.74,-1.15,2.61,-3.21,1.35,-211.05,-401.70,26.5
2026/04/22 21:52:13.00,IMU,14.65,21.00,-984.38,3.76,-6.97,-6.20,3.45,-209.70,-401.85,26.6
2026/04/22 21:52:13.10,IMU,2.44,15.14,-1007.81,2.02,-5.25,-6.75,1.80,-210.30,-402.30,26.4
2026/04/22 21:52:13.20,IMU,-13.67,6.35,-1027.34,1.56,2.17,-6.75,1.65,-210.15,-401.85,26.6
2026/04/22 21:52:13.30,IMU,-10.74,0.00,-1024.41,-0.15,-1.73,-2.16,1.35,-210.60,-403.05,26.4
2026/04/22 21:52:13.40,IMU,24.90,10.74,-1030.76,-2.77,5.05,-9.97,-1.65,-211.20,-398.25,26.5
2026/04/22 21:52:13.50,IMU,-13.18,16.11,-1016.60,1.73,-2.78,0.27,-0.30,-211.05,-402.00,26.4
2026/04/22 21:52:13.60,IMU,5.86,5.37,-938.96,0.16,0.92,0.50,-0.60,-210.30,-403.05,26.4
2026/04/22 21:52:13.70,IMU,5.86,25.88,-995.61,-3.37,7.88,-0.60,0.15,-211.20,-402.15,26.4
2026/04/22 21:52:13.80,IMU,10.74,27.34,-960.45,1.38,-2.05,-0.48,0.90,-210.45,-402.90,26.4
2026/04/22 21:52:13.90,IMU,28.81,34.67,-981.93,2.67,-3.57,4.00,0.45,-209.25,-402.15,26.4
2026/04/22 21:52:14.00,IMU,14.65,13.67,-1018.55,-2.24,5.27,-0.15,-0.15,-208.50,-403.20,26.5
2026/04/22 21:52:14.10,IMU,48.34,38.57,-985.35,-3.44,2.27,-14.87,0.30,-209.55,-403.05,26.4
2026/04/22 21:52:14.20,IMU,59.57,43.46,-999.51,-2.24,3.15,-14.89,-0.90,-210.45,-402.90,26.6
2026/04/22 21:52:14.30,IMU,40.04,57.13,-988.28,0.18,5.00,-9.06,-2.55,-209.10,-403.05,26.5
2026/04/22 21:52:14.41,IMU,101.07,56.15,-1038.09,-5.18,47.37,0.96,-7.05,-210.90,-399.00,26.4
2026/04/22 21:52:14.51,IMU,395.02,87.40,-1150.39,-33.43,73.50,3.28,-9.00,-208.20,-402.90,26.4
2026/04/22 21:52:14.61,IMU,198.73,129.88,-1119.14,-13.34,7.73,10.82,-10.95,-206.55,-404.55,26.7
2026/04/22 21:52:14.71,IMU,279.79,166.99,-954.10,-8.95,5.70,8.25,-12.00,-204.15,-406.65,26.4
2026/04/22 21:52:14.81,IMU,251.95,138.18,-1071.78,0.27,15.92,8.21,-12.60,-202.05,-408.00,26.4
2026/04/22 21:52:14.91,IMU,536.13,178.71,-890.14,-36.56,63.93,9.34,-16.50,-201.15,-411.00,26.4
2026/04/22 21:52:15.01,IMU,401.37,183.11,-916.99,-29.38,20.23,22.53,-17.10,-201.30,-409.80,26.4
2026/04/22 21:52:15.11,IMU,445.31,222.17,-822.27,-12.73,-7.73,22.77,-17.70,-197.10,-411.60,26.4
2026/04/22 21:52:15.21,IMU,472.66,243.65,-729.98,-18.84,-5.22,13.56,-15.60,-197.10,-411.90,26.5
2026/04/22 21:52:15.31,IMU,517.09,157.23,-832.52,19.54,-35.92,11.09,-16.35,-199.50,-410.55,26.4
2026/04/22 21:52:15.41,IMU,267.09,187.50,-1040.04,50.63,-59.18,-9.28,-11.70,-202.65,-408.15,26.6
2026/04/22 21:52:15.51,IMU,182.62,95.70,-1092.29,2.08,-32.73,15.60,-7.50,-204.45,-407.25,26.3
2026/04/22 21:52:15.62,IMU,194.34,-24.41,-914.06,-7.09,-36.52,10.50,-5.10,-204.60,-408.45,26.3
2026/04/22 21:52:15.72,IMU,259.28,2.44,-1011.23,6.98,-19.22,2.04,-2.70,-203.70,-408.75,26.4
2026/04/22 21:52:15.82,IMU,135.25,65.92,-934.08,18.47,34.25,6.27,-2.10,-206.10,-407.10,26.4
2026/04/22 21:52:15.92,IMU,242.68,107.42,-940.92,24.62,1.83,-3.53,-5.85,-206.10,-408.15,26.3
2026/04/22 21:52:16.02,IMU,259.28,-45.90,-1301.27,16.99,7.44,7.21,-7.05,-207.75,-405.75,26.4
2026/04/22 21:52:16.12,IMU,186.52,0.00,-1042.48,-6.78,-58.10,-33.08,-5.40,-206.85,-406.05,26.4
2026/04/22 21:52:16.22,IMU,27.83,-80.57,-898.93,4.93,15.43,-26.81,-7.35,-204.60,-405.30,26.4
2026/04/22 21:52:16.32,IMU,-16.60,-18.07,-941.41,10.36,-6.36,-0.58,-9.00,-204.00,-403.65,26.2
2026/04/22 21:52:16.42,IMU,53.22,-11.72,-922.85,5.62,9.05,20.46,-6.60,-206.55,-399.90,26.3
2026/04/22 21:52:16.52,IMU,212.89,-35.64,-958.98,4.80,9.77,-3.00,-5.85,-206.85,-402.00,26.3
2026/04/22 21:52:16.62,IMU,171.39,-41.02,-1055.18,5.79,-0.47,-7.08,-6.00,-207.45,-400.05,26.4
2026/04/22 21:52:16.72,IMU,163.57,-37.11,-981.93,-1.44,6.51,-1.89,-4.50,-207.75,-399.00,26.4
2026/04/22 21:52:16.82,IMU,125.00,-52.25,-992.19,8.59,-1.79,2.60,-4.65,-207.30,-400.20,26.4
2026/04/22 21:52:16.92,IMU,201.17,-70.31,-1031.25,-11.57,21.14,-12.59,-5.25,-208.20,-400.35,26.2
2026/04/22 21:52:17.02,IMU,128.42,-36.62,-960.94,-17.72,19.53,-6.02,-8.70,-207.30,-401.25,26.3
2026/04/22 21:52:17.12,IMU,220.70,0.49,-1025.39,-5.74,-7.17,-2.55,-7.80,-205.95,-400.05,26.5
2026/04/22 21:52:17.22,IMU,171.39,53.22,-999.02,3.73,6.02,1.47,-7.50,-206.70,-401.10,26.4
2026/04/22 21:52:17.32,IMU,206.05,-99.61,-1113.77,5.76,6.79,7.31,-7.95,-208.05,-400.95,26.4
2026/04/22 21:52:17.42,IMU,165.53,2.44,-1081.05,-22.37,10.43,-3.21,-9.75,-206.70,-400.80,26.5
2026/04/22 21:52:17.52,IMU,200.68,-40.04,-981.45,-9.98,3.38,-3.98,-8.70,-204.15,-401.70,26.6
2026/04/22 21:52:17.62,IMU,210.94,0.98,-1029.30,0.01,2.38,-0.92,-9.90,-204.90,-400.95,26.5
2026/04/22 21:52:17.72,IMU,231.45,-6.35,-981.45,1.92,8.76,11.15,-9.30,-204.00,-401.85,26.2
2026/04/22 21:52:17.82,IMU,283.20,-9.28,-961.91,-34.52,32.69,30.46,-10.05,-202.80,-403.65,26.3
2026/04/22 21:52:17.92,IMU,381.84,65.92,-988.77,8.31,-2.11,13.50,-10.05,-202.80,-404.70,26.3
2026/04/22 21:52:18.02,IMU,321.78,31.74,-926.76,-4.77,-13.99,-5.81,-9.90,-203.10,-404.85,26.6
2026/04/22 21:52:18.12,IMU,293.46,46.39,-977.54,-13.30,-14.94,-3.66,-8.25,-201.75,-405.45,26.4
2026/04/22 21:52:18.22,IMU,279.79,57.62,-953.61,-0.06,-19.47,5.95,-7.50,-203.25,-404.40,26.4
2026/04/22 21:52:18.32,IMU,213.38,35.16,-989.26,11.26,-28.23,1.37,-6.00,-201.30,-405.15,26.5
2026/04/22 21:52:18.42,IMU,307.13,-210.45,-956.54,3.43,-0.08,-4.41,-2.55,-203.10,-405.30,26.3
2026/04/22 21:52:18.52,IMU,152.34,47.85,-930.18,2.91,-7.92,1.53,-2.70,-203.70,-403.65,26.5
2026/04/22 21:52:18.62,IMU,105.47,41.99,-967.77,12.34,-25.20,-13.93,-2.70,-205.20,-403.20,26.4
2026/04/22 21:52:18.72,IMU,119.63,-4.39,-1078.13,-3.46,8.78,3.61,-3.30,-204.60,-403.50,26.3
2026/04/22 21:52:18.82,IMU,237.30,56.64,-906.25,-39.08,38.81,6.76,-4.35,-201.15,-406.05,26.6
2026/04/22 21:52:18.93,IMU,246.09,71.29,-976.56,-9.88,13.85,-2.05,-6.00,-201.00,-406.50,26.4
2026/04/22 21:52:19.03,IMU,268.07,99.61,-979.49,-5.76,6.43,7.30,-6.90,-201.60,-406.65,26.4
2026/04/22 21:52:19.13,IMU,265.14,79.59,-947.27,-7.53,17.17,11.75,-6.60,-201.15,-405.30,26.4
2026/04/22 21:52:19.24,IMU,332.03,105.47,-989.75,-1.25,14.39,-0.40,-7.05,-199.80,-407.55,26.2
2026/04/22 21:52:19.34,IMU,282.71,84.47,-971.19,2.18,2.09,4.61,-7.50,-199.80,-407.55,26.4
2026/04/22 21:52:19.44,IMU,284.67,80.08,-929.69,17.96,-1.79,0.95,-8.55,-201.30,-405.45,26.4
2026/04/22 21:52:19.54,IMU,299.80,62.99,-963.38,1.40,1.19,3.76,-7.05,-202.50,-407.25,26.3
2026/04/22 21:52:19.64,IMU,247.56,38.09,-945.31,0.64,0.11,-1.63,-7.95,-202.35,-407.10,26.3
2026/04/22 21:52:19.74,IMU,263.18,60.55,-938.96,-1.53,0.71,2.05,-9.30,-202.50,-406.20,26.5
2026/04/22 21:52:19.84,IMU,282.71,61.04,-975.10,-2.94,-0.35,10.18,-8.55,-203.25,-405.45,26.4
2026/04/22 21:52:19.94,IMU,311.04,68.85,-967.77,-11.02,6.56,3.17,-7.50,-202.50,-408.00,26.3
2026/04/22 21:52:20.04,IMU,265.63,80.57,-945.31,-8.48,-6.47,5.43,-7.35,-200.40,-407.10,26.4
2026/04/22 21:52:20.14,IMU,243.65,55.18,-952.64,-5.54,-16.12,12.37,-5.25,-199.50,-409.35,26.4
2026/04/22 21:52:20.24,IMU,317.38,103.52,-1061.52,-0.77,-13.75,-3.08,-1.35,-199.65,-410.25,26.6
2026/04/22 21:52:20.34,IMU,250.49,104.98,-1003.91,5.63,8.06,0.34,-2.55,-199.95,-409.20,26.3
2026/04/22 21:52:20.44,IMU,15.63,31.25,-1311.04,6.73,58.93,5.79,-2.85,-202.35,-407.85,26.4
2026/04/22 21:52:20.54,IMU,309.57,93.75,-889.65,-12.73,-13.36,-9.82,-5.70,-202.80,-405.75,26.3
2026/04/22 21:52:20.64,IMU,244.14,65.92,-985.35,-9.03,11.86,-5.50,-1.95,-201.00,-408.00,26.4
2026/04/22 21:52:20.74,IMU,370.12,85.94,-1026.86,76.10,90.18,-37.65,-3.90,-201.90,-408.15,26.2
2026/04/22 21:52:20.84,IMU,411.62,-69.82,-1043.46,-71.58,-56.33,4.69,-10.95,-208.35,-404.25,26.4
2026/04/22 21:52:20.94,IMU,342.29,153.81,-881.35,-48.76,-16.85,-7.29,-8.70,-199.95,-409.65,26.3
2026/04/22 21:52:21.04,IMU,227.54,99.61,-928.71,26.85,-16.90,2.35,-6.75,-198.75,-409.35,26.4
2026/04/22 21:52:21.14,IMU,219.73,127.93,-1001.95,8.51,-5.95,18.98,-7.50,-201.30,-408.30,26.3
2026/04/22 21:52:21.24,IMU,333.01,64.94,-900.39,11.24,4.18,-34.11,-6.30,-201.75,-407.25,26.2
2026/04/22 21:52:21.34,IMU,82.52,-26.37,-1137.21,4.40,0.60,7.30,-8.40,-204.90,-404.55,26.2
2026/04/22 21:52:21.44,IMU,329.10,84.96,-1045.41,-0.52,3.60,-5.98,-9.15,-205.65,-404.85,26.2
2026/04/22 21:52:21.55,IMU,208.01,1.95,-1006.35,0.63,4.56,4.47,-10.20,-206.55,-401.25,26.3
2026/04/22 21:52:21.65,IMU,190.43,15.63,-959.47,2.79,9.07,7.49,-8.55,-205.20,-405.15,26.1
2026/04/22 21:52:21.75,IMU,282.23,57.62,-944.82,-4.97,-0.50,7.93,-7.95,-205.35,-406.05,26.1
2026/04/22 21:52:21.86,IMU,252.44,-23.44,-1031.74,18.88,9.36,15.50,-8.25,-204.75,-405.75,26.1
2026/04/22 21:52:21.96,IMU,276.86,10.25,-899.90,9.72,-6.15,4.49,-7.50,-207.45,-405.45,25.9
2026/04/22 21:52:22.06,IMU,226.07,-63.48,-1046.39,-1.33,-2.98,-9.05,-7.35,-207.60,-404.25,26.2
2026/04/22 21:52:22.16,IMU,228.03,-18.07,-977.05,1.00,5.98,-16.29,-9.45,-208.05,-402.00,26.1
2026/04/22 21:52:22.26,IMU,297.85,-106.93,-978.52,24.50,-14.51,-7.90,-9.90,-209.55,-402.75,26.3
2026/04/22 21:52:22.36,IMU,233.89,-58.59,-1050.29,-19.04,0.83,6.73,-9.45,-209.55,-401.25,26.1
2026/04/22 21:52:22.46,IMU,297.85,-9.28,-933.11,-8.27,13.34,-6.00,-9.75,-207.45,-403.95,25.4
2026/04/22 21:52:22.57,IMU,306.15,3.91,-887.70,1.59,1.88,-1.68,-13.50,-207.60,-398.40,26.0
2026/04/22 21:52:22.67,IMU,235.35,-3.91,-1006.84,5.37,9.03,3.02,-9.15,-207.60,-403.50,26.2
2026/04/22 21:52:22.77,IMU,297.85,-51.27,-961.91,4.55,0.90,10.04,-10.80,-208.50,-403.20,26.0
2026/04/22 21:52:22.87,IMU,316.89,-21.48,-950.20,-10.61,-7.23,-7.10,-10.80,-208.50,-404.40,26.0
2026/04/22 21:52:22.97,IMU,312.50,-32.23,-990.72,-1.96,3.11,-2.85,-10.35,-206.70,-404.70,25.9
2026/04/22 21:52:23.07,IMU,307.62,-25.88,-969.73,2.75,0.81,1.03,-9.45,-206.85,-404.55,26.0
2026/04/22 21:52:23.17,IMU,255.37,-25.88,-949.22,-0.47,2.54,-11.18,-10.65,-206.55,-405.30,26.1
2026/04/22 21:52:23.27,IMU,278.32,-1.46,-966.80,-13.21,3.22,0.04,-9.90,-205.35,-405.30,26.1
2026/04/22 21:52:23.37,IMU,259.28,9.77,-934.08,-1.78,-0.69,5.09,-11.85,-205.95,-404.70,25.9
2026/04/22 21:52:23.47,IMU,294.43,-0.98,-941.41,3.75,0.88,3.21,-10.80,-205.50,-404.40,25.9
2026/04/22 21:52:23.57,IMU,323.24,3.91,-956.54,0.27,1.52,-0.02,-10.20,-206.10,-404.55,25.9
2026/04/22 21:52:23.67,IMU,330.57,4.88,-966.31,-4.76,5.49,-2.84,-12.45,-205.65,-405.60,25.7
2026/04/22 21:52:23.77,IMU,284.18,3.91,-960.94,2.51,1.11,-0.70,-10.65,-206.10,-404.85,26.0
2026/04/22 21:52:23.87,IMU,290.04,-10.25,-960.94,0.59,-3.16,0.38,-13.05,-205.95,-403.65,26.0
2026/04/22 21:52:23.97,IMU,323.73,-2.93,-984.38,1.37,-1.02,5.70,-12.60,-205.95,-404.70,25.7
2026/04/22 21:52:24.07,IMU,275.88,-4.39,-963.87,0.37,-1.37,2.47,-11.10,-206.25,-404.70,25.9
2026/04/22 21:52:24.17,IMU,362.30,-7.81,-994.14,-0.85,2.81,1.85,-11.85,-207.00,-405.15,25.9
2026/04/22 21:52:24.28,IMU,351.07,-7.32,-1001.95,-10.92,12.36,3.68,-11.55,-207.00,-405.45,25.8
2026/04/22 21:52:24.38,IMU,292.48,29.30,-941.89,-2.18,-6.69,1.05,-12.45,-204.90,-406.65,25.7
2026/04/22 21:52:24.48,IMU,353.52,31.25,-960.45,2.89,0.15,-0.76,-11.40,-204.60,-405.60,25.6
2026/04/22 21:52:24.58,IMU,320.80,-12.70,-964.36,1.36,1.13,5.27,-11.10,-205.20,-406.20,25.7
2026/04/22 21:52:24.68,IMU,306.15,5.37,-967.77,0.11,-1.24,-0.96,-12.45,-205.35,-406.05,25.8
2026/04/22 21:52:24.78,IMU,284.67,-3.42,-945.80,-1.44,-1.89,-3.06,-11.40,-206.55,-407.10,25.7
2026/04/22 21:52:24.88,IMU,322.27,5.86,-968.26,4.60,-2.29,1.36,-10.95,-206.10,-405.60,25.7
2026/04/22 21:52:24.98,IMU,324.71,-18.07,-979.00,9.37,6.50,0.26,-12.45,-206.85,-404.25,25.4
2026/04/22 21:52:25.08,IMU,283.20,-15.63,-975.59,3.61,-4.87,-3.89,-11.55,-207.45,-405.45,25.6
2026/04/22 21:52:25.18,IMU,309.08,-16.60,-949.22,1.11,5.47,-0.69,-10.35,-208.95,-403.95,25.4
2026/04/22 21:52:25.28,IMU,320.31,-36.62,-935.06,7.92,-4.22,-7.82,-11.70,-206.85,-404.55,25.7
2026/04/22 21:52:25.38,IMU,308.59,-23.93,-1030.27,6.40,1.07,-0.79,-11.55,-209.25,-403.95,25.3
2026/04/22 21:52:25.48,IMU,272.95,-40.53,-941.41,0.31,5.53,4.29,-12.45,-209.85,-404.55,25.4
2026/04/22 21:52:25.58,IMU,340.33,-75.20,-929.20,5.55,3.43,-6.19,-12.45,-211.05,-403.80,25.7
2026/04/22 21:52:25.68,IMU,328.13,-53.22,-983.89,8.63,-2.44,-1.04,-11.85,-210.15,-402.15,25.7
2026/04/22 21:52:25.78,IMU,313.96,-35.16,-933.59,-1.61,6.44,-3.31,-12.30,-210.15,-404.40,25.7
2026/04/22 21:52:25.88,IMU,328.13,-51.76,-922.85,-1.56,2.58,2.07,-11.40,-211.05,-402.75,25.3
2026/04/22 21:52:25.98,IMU,334.96,-58.11,-943.36,2.00,0.39,-2.58,-12.75,-211.05,-403.05,25.4
2026/04/22 21:52:26.08,IMU,303.71,-64.94,-922.36,3.03,3.44,-2.46,-12.00,-210.60,-403.50,25.6
2026/04/22 21:52:26.18,IMU,297.85,-60.55,-977.05,-0.47,-0.98,-4.04,-11.85,-212.40,-402.60,25.2
2026/04/22 21:52:26.28,IMU,326.17,-61.04,-963.87,1.08,0.89,-0.79,-11.70,-211.35,-403.50,25.4
2026/04/22 21:52:26.38,IMU,300.78,-95.21,-959.47,-0.82,3.11,-2.14,-13.20,-212.55,-402.75,25.3
2026/04/22 21:52:26.48,IMU,330.57,-62.01,-933.11,0.89,-0.11,-4.05,-12.45,-211.05,-403.50,25.6
2026/04/22 21:52:26.58,IMU,313.48,-72.27,-957.03,2.81,1.01,-4.34,-11.55,-211.65,-403.65,25.4
2026/04/22 21:52:26.68,IMU,298.34,-70.80,-956.54,-4.69,2.29,3.78,-12.00,-211.35,-402.00,25.4
2026/04/22 21:52:26.78,IMU,273.93,-70.80,-951.17,-0.47,-3.34,5.31,-12.00,-210.30,-404.25,25.4
2026/04/22 21:52:26.88,IMU,317.38,-53.22,-961.91,-0.76,-2.41,2.02,-12.30,-210.15,-402.15,25.4
2026/04/22 21:52:26.98,IMU,333.01,-48.34,-992.19,-6.91,-3.20,9.23,-10.95,-210.60,-403.80,25.5
2026/04/22 21:52:27.08,IMU,282.71,-75.20,-943.36,0.46,-8.19,3.85,-9.45,-208.35,-403.50,25.4
2026/04/22 21:52:27.18,IMU,321.29,-57.62,-919.92,-0.53,-2.46,2.82,-10.80,-209.70,-402.90,25.2
2026/04/22 21:52:27.28,IMU,310.55,-41.50,-975.59,5.04,0.98,0.85,-9.75,-209.25,-403.65,25.6
2026/04/22 21:52:27.38,IMU,299.32,-79.10,-923.83,5.73,-9.08,-4.39,-10.20,-211.35,-403.80,25.3
2026/04/22 21:52:27.48,IMU,269.04,-114.26,-942.87,19.11,-16.31,-7.82,-7.80,-211.95,-400.80,25.4
2026/04/22 21:52:27.58,IMU,262.70,-119.14,-1040.04,11.40,-1.32,-4.78,-10.80,-212.40,-399.30,25.5
2026/04/22 21:52:27.69,IMU,212.89,-133.79,-1006.35,-5.44,-1.50,-0.57,-12.75,-213.00,-395.55,25.1
2026/04/22 21:52:27.79,IMU,223.14,-116.21,-942.87,-4.44,0.90,3.69,-9.30,-211.20,-398.55,25.3
2026/04/22 21:52:27.89,IMU,240.23,-144.53,-996.58,1.17,0.98,8.08,-9.45,-211.80,-400.50,25.4
2026/04/22 21:52:27.99,IMU,261.72,-135.25,-1018.07,2.54,-3.21,0.69,-8.40,-211.35,-399.45,25.3
2026/04/22 21:52:28.09,IMU,231.45,-108.89,-967.29,1.98,-3.04,4.36,-9.00,-211.95,-401.10,25.4
2026/04/22 21:52:28.19,IMU,211.43,-136.72,-1019.53,1.27,10.39,4.98,-7.05,-211.65,-400.80,25.0
2026/04/22 21:52:28.29,IMU,237.79,-157.71,-994.14,3.53,3.15,4.31,-7.50,-213.90,-400.35,25.2
2026/04/22 21:52:28.39,IMU,280.76,-121.09,-975.10,5.15,1.02,-1.29,-7.80,-213.90,-400.05,25.4
2026/04/22 21:52:28.49,IMU,247.07,-143.55,-992.68,2.84,2.02,-3.17,-8.25,-213.90,-399.00,25.1
2026/04/22 21:52:28.59,IMU,286.13,-146.97,-1005.37,-0.96,-1.38,0.99,-7.50,-214.95,-398.55,25.2
2026/04/22 21:52:28.69,IMU,235.35,-136.72,-975.10,-15.08,-11.89,2.73,-10.95,-216.75,-395.55,25.2
2026/04/22 21:52:28.79,IMU,241.70,-100.59,-998.54,-16.69,-0.61,18.47,-7.35,-213.30,-402.30,25.2
2026/04/22 21:52:28.89,IMU,282.71,-53.71,-934.08,-7.69,-1.47,1.87,-5.25,-210.90,-402.90,25.2
2026/04/22 21:52:28.99,IMU,204.10,-111.33,-1025.39,5.39,9.31,-6.68,-7.05,-210.90,-405.15,25.2
2026/04/22 21:52:29.09,IMU,305.18,-58.59,-988.77,6.05,2.26,-3.40,-7.05,-211.20,-402.90,25.3
2026/04/22 21:52:29.19,IMU,231.93,-99.12,-962.40,6.05,7.58,2.16,-8.25,-210.45,-402.90,25.2
2026/04/22 21:52:29.29,IMU,295.41,-87.89,-965.82,10.18,5.98,5.44,-7.35,-213.30,-400.95,25.3
2026/04/22 21:52:29.39,IMU,290.04,-128.91,-963.87,9.40,-2.13,-2.11,-9.15,-213.00,-399.90,25.0
2026/04/22 21:52:29.49,IMU,298.83,-127.93,-974.61,2.18,7.08,-5.56,-6.60,-213.75,-399.90,25.2
2026/04/22 21:52:29.59,IMU,289.55,-126.95,-951.66,2.85,10.40,-4.78,-9.30,-214.65,-400.35,25.3
2026/04/22 21:52:29.69,IMU,319.34,-125.98,-1003.42,-1.45,4.30,5.00,-9.90,-215.25,-400.50,25.3
2026/04/22 21:52:29.79,IMU,294.43,-127.93,-975.59,-1.24,4.26,1.65,-10.20,-216.00,-399.15,25.2
2026/04/22 21:52:29.89,IMU,333.01,-126.46,-953.61,-1.75,2.06,2.02,-11.40,-215.25,-401.25,25.2
2026/04/22 21:52:29.99,IMU,310.06,-119.14,-933.59,-1.27,2.44,0.16,-9.45,-215.25,-400.20,25.3
2026/04/22 21:52:30.09,IMU,313.48,-121.58,-949.22,4.71,-1.72,-6.15,-10.95,-214.80,-400.20,25.2
2026/04/22 21:52:30.19,IMU,326.17,-137.70,-957.03,2.07,-0.95,-4.27,-11.10,-214.20,-401.40,25.3
2026/04/22 21:52:30.30,IMU,309.08,-137.21,-965.33,2.90,-0.07,-3.19,-11.10,-213.90,-400.80,25.2
2026/04/22 21:52:30.40,IMU,334.47,-130.86,-947.27,2.31,-0.90,-2.17,-11.85,-215.40,-400.35,25.1
2026/04/22 21:52:30.50,IMU,300.29,-106.45,-946.78,-1.33,-3.93,0.02,-12.00,-216.00,-400.20,25.2
2026/04/22 21:52:30.60,IMU,313.48,-129.88,-943.85,-0.31,3.15,4.82,-11.70,-215.55,-399.90,25.2
2026/04/22 21:52:30.70,IMU,306.64,-132.32,-959.96,1.65,2.44,4.18,-10.80,-216.15,-400.80,25.3
2026/04/22 21:52:30.80,IMU,324.22,-139.16,-955.57,-0.46,2.53,6.60,-11.10,-217.35,-400.35,25.3
2026/04/22 21:52:30.90,IMU,324.71,-154.79,-950.20,1.01,-0.51,2.08,-11.40,-217.05,-400.20,25.0
2026/04/22 21:52:31.00,IMU,300.29,-149.41,-976.07,1.82,-1.68,2.34,-10.65,-219.00,-399.90,25.3
2026/04/22 21:52:31.10,IMU,335.94,-146.00,-939.45,0.53,0.79,-1.25,-10.65,-217.50,-400.95,25.2
2026/04/22 21:52:31.20,IMU,316.41,-151.37,-956.05,1.46,-0.44,-2.74,-11.70,-217.05,-400.20,25.2
2026/04/22 21:52:31.30,IMU,308.59,-163.09,-975.59,2.95,3.72,0.94,-9.45,-218.70,-402.00,25.3
2026/04/22 21:52:31.40,IMU,325.20,-149.90,-958.01,-2.08,1.18,-0.92,-11.10,-216.15,-400.35,25.2
2026/04/22 21:52:31.50,IMU,323.73,-157.71,-930.66,-1.16,0.68,0.81,-11.40,-216.00,-400.95,25.1
2026/04/22 21:52:31.60,IMU,291.50,-150.39,-953.13,2.80,-4.05,-1.22,-12.30,-216.60,-401.10,25.2
2026/04/22 21:52:31.70,IMU,305.18,-153.32,-952.64,-5.43,-0.74,-0.11,-11.40,-217.80,-400.50,25.3
2026/04/22 21:52:31.80,IMU,305.66,-140.63,-962.89,-1.55,-1.60,0.37,-10.05,-218.40,-400.05,25.1
2026/04/22 21:52:31.90,IMU,312.01,-133.79,-959.96,-2.60,-3.50,-0.06,-11.55,-215.40,-402.15,24.9
2026/04/22 21:52:32.00,IMU,255.86,-155.76,-969.73,-1.51,-1.07,1.21,-11.55,-215.40,-401.85,24.9
2026/04/22 21:52:32.11,IMU,338.38,-87.40,-993.65,-2.72,-2.76,5.39,-11.40,-216.00,-401.25,25.2
2026/04/22 21:52:32.21,IMU,310.06,-135.25,-939.45,-9.69,-15.79,-0.44,-12.45,-214.50,-402.75,25.2
2026/04/22 21:52:32.31,IMU,251.95,-106.93,-970.21,-3.93,-27.15,-10.68,-10.95,-213.75,-402.30,25.1
2026/04/22 21:52:32.41,IMU,223.14,-98.63,-927.25,11.76,0.44,0.73,-12.30,-212.40,-403.65,25.2
2026/04/22 21:52:32.51,IMU,196.29,-130.37,-916.02,-2.97,10.94,-8.29,-11.10,-212.70,-403.65,25.2
2026/04/22 21:52:32.61,IMU,221.19,-115.72,-956.05,-10.78,-4.74,7.01,-10.80,-213.45,-403.65,24.9
2026/04/22 21:52:32.71,IMU,236.33,-72.75,-906.25,7.64,-28.37,-2.08,-7.50,-211.20,-402.90,25.2
2026/04/22 21:52:32.81,IMU,177.25,-108.89,-975.59,33.69,-0.51,-26.12,-7.50,-214.95,-402.60,25.2
2026/04/22 21:52:32.91,IMU,147.95,-192.38,-989.75,5.08,8.20,1.90,-11.55,-215.85,-401.40,24.9
2026/04/22 21:52:33.01,IMU,207.03,-187.99,-1058.11,-3.44,2.01,10.91,-11.10,-216.60,-400.80,25.3
2026/04/22 21:52:33.11,IMU,193.36,-145.02,-1044.43,-1.79,-7.86,18.63,-10.65,-217.50,-402.00,24.9
2026/04/22 21:52:33.21,IMU,184.57,-170.41,-1012.70,-1.66,2.68,-0.25,-9.15,-215.25,-402.00,25.2
2026/04/22 21:52:33.31,IMU,174.80,-127.93,-958.98,-0.22,-20.02,4.13,-7.50,-214.65,-402.60,24.9
2026/04/22 21:52:33.41,IMU,97.17,-126.46,-987.79,2.18,-8.92,-0.91,-8.25,-214.95,-401.85,25.2
2026/04/22 21:52:33.51,IMU,151.37,-175.78,-989.75,10.66,-14.53,-8.53,-9.00,-214.20,-403.65,25.2
2026/04/22 21:52:33.61,IMU,30.27,-185.55,-1028.81,6.70,12.82,34.25,-6.15,-217.50,-402.75,25.1
2026/04/22 21:52:33.71,IMU,166.50,-171.39,-971.68,-14.31,11.66,4.07,-4.65,-217.50,-402.00,25.2
2026/04/22 21:52:33.81,IMU,207.03,-143.55,-996.09,-14.08,2.52,-12.54,-6.15,-213.30,-404.25,25.2
2026/04/22 21:52:33.91,IMU,142.09,-106.45,-987.30,-2.06,2.34,-12.24,-5.70,-213.15,-403.95,25.2
2026/04/22 21:52:34.01,IMU,186.52,-100.59,-983.89,4.79,6.98,-6.25,-7.35,-213.30,-403.80,24.9
2026/04/22 21:52:34.11,IMU,151.86,-144.04,-1021.48,3.69,13.33,-10.44,-9.15,-212.55,-404.85,25.0
2026/04/22 21:52:34.21,IMU,242.68,-111.33,-974.61,-4.74,16.10,2.21,-10.05,-213.45,-404.40,25.2
2026/04/22 21:52:34.31,IMU,256.84,-91.80,-964.36,4.21,0.05,-0.21,-10.65,-213.00,-403.05,25.0
2026/04/22 21:52:34.41,IMU,187.01,-140.14,-991.21,-2.41,4.25,-5.18,-10.05,-212.70,-404.70,25.0
2026/04/22 21:52:34.51,IMU,246.09,-112.30,-1003.42,-14.08,8.33,1.16,-10.65,-213.00,-406.05,24.9
2026/04/22 21:52:34.61,IMU,239.26,-93.26,-981.93,3.53,4.82,0.07,-9.75,-211.20,-405.75,25.1
2026/04/22 21:52:34.71,IMU,237.79,-90.82,-958.50,-0.99,-8.90,-6.70,-8.70,-213.30,-404.55,24.9
2026/04/22 21:52:34.82,IMU,209.96,-99.61,-1001.46,-5.87,-5.41,-7.21,-11.55,-212.40,-402.15,25.2
2026/04/22 21:52:34.92,IMU,203.13,-72.27,-981.45,-8.29,-2.52,-2.48,-9.15,-210.60,-406.05,24.7
2026/04/22 21:52:35.02,IMU,232.91,-72.75,-992.68,-3.50,-1.10,3.06,-7.95,-209.55,-406.35,25.0
2026/04/22 21:52:35.12,IMU,222.66,-65.43,-992.19,4.28,-4.20,-5.12,-8.55,-209.25,-405.75,25.3
2026/04/22 21:52:35.22,IMU,188.96,-76.66,-1008.30,0.62,-5.63,-1.71,-7.80,-210.45,-404.70,25.1
2026/04/22 21:52:35.32,IMU,208.01,-62.50,-944.34,-2.02,-6.92,-3.07,-9.00,-209.25,-404.40,25.2
2026/04/22 21:52:35.42,IMU,161.13,-68.85,-1039.06,-12.87,-5.92,-3.94,-6.90,-208.35,-404.25,25.3
2026/04/22 21:52:35.52,IMU,174.32,4.39,-989.26,-4.82,4.72,-2.28,-7.50,-206.70,-403.95,25.2
2026/04/22 21:52:35.62,IMU,226.56,-8.79,-1011.72,0.91,-9.15,3.37,-7.05,-205.50,-402.60,25.2
2026/04/22 21:52:35.72,IMU,146.97,-34.18,-981.45,12.40,-1.05,-5.60,-6.00,-205.50,-402.15,25.3
2026/04/22 21:52:35.82,IMU,155.76,-51.76,-986.82,5.17,3.75,-3.29,-10.20,-208.80,-399.45,25.0
2026/04/22 21:52:35.93,IMU,182.13,-29.79,-1007.81,2.99,8.47,-2.13,-7.35,-207.30,-407.10,24.9
2026/04/22 21:52:36.03,IMU,206.05,-62.99,-999.51,6.81,3.31,-0.92,-7.95,-208.35,-406.35,24.9
2026/04/22 21:52:36.13,IMU,169.43,-70.31,-994.63,3.85,6.47,-0.91,-9.75,-208.95,-406.50,25.2
2026/04/22 21:52:36.23,IMU,167.97,-88.87,-992.68,-1.27,6.94,-0.95,-9.30,-209.25,-406.50,25.2
2026/04/22 21:52:36.33,IMU,256.84,-72.27,-1008.30,-3.59,11.35,5.11,-9.00,-209.70,-408.30,25.2
2026/04/22 21:52:36.43,IMU,215.82,-68.36,-971.19,4.54,-5.31,-2.21,-8.55,-208.95,-407.55,24.9
2026/04/22 21:52:36.53,IMU,210.45,-76.66,-982.91,1.05,-6.48,-1.04,-7.50,-209.25,-406.95,25.2
2026/04/22 21:52:36.63,IMU,202.64,-59.57,-985.84,0.18,-11.52,-1.78,-6.90,-208.80,-407.10,24.9
2026/04/22 21:52:36.73,IMU,152.34,-80.08,-999.02,8.51,-12.12,-4.36,-7.05,-210.15,-407.25,25.2
2026/04/22 21:52:36.84,IMU,100.59,-85.45,-959.96,3.11,0.70,-14.55,-9.00,-210.15,-402.90,24.9
2026/04/22 21:52:36.94,IMU,71.78,-98.14,-990.23,1.11,2.64,2.42,-5.40,-208.80,-406.35,24.9
2026/04/22 21:52:37.04,IMU,128.42,-69.34,-999.51,-1.34,12.68,3.38,-5.70,-209.25,-405.75,24.9
2026/04/22 21:52:37.14,IMU,180.18,-62.99,-970.70,-2.29,2.63,-1.58,-6.15,-209.55,-406.05,24.9
2026/04/22 21:52:37.24,IMU,143.55,-83.01,-1004.88,-0.03,5.15,8.11,-6.60,-209.85,-407.10,24.9
2026/04/22 21:52:37.34,IMU,167.48,-55.66,-1005.86,-2.67,0.78,-1.68,-6.00,-208.20,-408.30,24.8
2026/04/22 21:52:37.44,IMU,145.51,-83.98,-979.98,1.17,0.85,-1.69,-6.60,-208.35,-408.15,24.9
2026/04/22 21:52:37.54,IMU,160.16,-73.73,-1002.44,-1.79,2.21,-2.71,-7.80,-209.25,-407.25,25.0
2026/04/22 21:52:37.64,IMU,176.27,-72.27,-993.65,-1.58,1.26,1.20,-6.30,-208.20,-409.80,25.0
2026/04/22 21:52:37.75,IMU,174.32,-53.22,-995.61,-4.88,7.75,0.26,-6.90,-207.30,-408.90,24.9
2026/04/22 21:52:37.85,IMU,196.78,-62.01,-1004.39,-0.60,1.01,-0.72,-6.75,-207.45,-409.80,24.9
2026/04/22 21:52:37.95,IMU,187.99,-59.57,-1001.46,-1.25,-1.00,0.47,-6.75,-207.75,-409.05,24.9
2026/04/22 21:52:38.05,IMU,170.90,-45.90,-1003.42,0.36,0.27,-0.72,-7.95,-206.55,-407.10,24.9
2026/04/22 21:52:38.15,IMU,172.85,-53.71,-1008.30,3.37,-1.76,1.32,-4.65,-205.65,-408.90,24.9
2026/04/22 21:52:38.25,IMU,169.92,-64.45,-1004.39,3.08,-1.44,0.86,-5.85,-206.85,-408.90,24.6
2026/04/22 21:52:38.35,IMU,168.95,-64.45,-998.05,3.73,-2.05,1.22,-6.60,-208.80,-409.65,24.9
2026/04/22 21:52:38.45,IMU,155.27,-66.89,-1003.42,2.52,-2.11,0.76,-5.70,-208.20,-409.05,25.1
2026/04/22 21:52:38.55,IMU,149.90,-64.45,-989.75,3.34,3.34,3.63,-7.05,-207.75,-409.05,24.9
2026/04/22 21:52:38.65,IMU,147.95,-64.45,-1001.46,-0.73,3.02,-6.40,-5.40,-206.55,-408.90,25.2
2026/04/22 21:52:38.75,IMU,190.43,-58.59,-996.58,0.89,3.07,-2.00,-7.50,-208.20,-409.80,24.9
2026/04/22 21:52:38.85,IMU,186.52,-56.15,-991.70,3.25,-0.69,-3.45,-6.60,-207.30,-409.20,25.2
2026/04/22 21:52:38.95,IMU,153.81,-57.62,-992.68,0.62,5.19,0.24,-6.75,-208.20,-408.30,25.2
2026/04/22 21:52:39.05,IMU,173.83,-73.24,-1008.79,1.27,0.56,0.97,-6.75,-208.50,-407.25,25.0
2026/04/22 21:52:39.15,IMU,178.71,-68.36,-997.07,0.13,2.55,1.98,-6.90,-207.60,-407.40,25.2
2026/04/22 21:52:39.25,IMU,183.11,-68.36,-997.07,-0.74,1.03,0.42,-6.30,-207.00,-409.35,25.0
2026/04/22 21:52:39.35,IMU,169.43,-70.80,-984.86,2.45,1.89,-0.47,-6.90,-208.05,-408.45,24.7
2026/04/22 21:52:39.45,IMU,182.13,-51.27,-1003.42,-1.79,2.33,-1.37,-6.90,-208.05,-407.85,25.0
2026/04/22 21:52:39.55,IMU,184.08,-40.04,-999.51,1.20,2.55,-1.05,-7.35,-207.60,-407.85,24.9
2026/04/22 21:52:39.65,IMU,193.85,-64.45,-1003.91,-1.58,2.76,2.89,-6.90,-207.30,-408.15,24.9
2026/04/22 21:52:39.75,IMU,173.83,-39.55,-981.93,1.53,0.34,0.65,-8.25,-207.75,-408.30,24.9
2026/04/22 21:52:39.85,IMU,201.66,-64.45,-974.12,9.25,-6.56,-2.72,-7.05,-208.95,-407.25,24.9
2026/04/22 21:52:39.95,IMU,151.37,-84.96,-1012.70,0.15,-6.18,-1.74,-6.00,-208.20,-408.00,25.1
2026/04/22 21:52:40.05,IMU,217.29,-94.24,-1011.72,-0.91,-10.74,6.04,-5.40,-208.35,-408.45,25.1
2026/04/22 21:52:40.15,IMU,92.29,-6.35,-920.41,7.95,-18.42,8.53,-4.35,-206.85,-408.45,25.0
2026/04/22 21:52:40.25,IMU,49.80,-164.55,-1093.75,1.30,4.28,-8.07,-3.90,-211.05,-406.35,25.3
2026/04/22 21:52:40.35,IMU,105.47,-127.93,-956.54,-28.07,29.92,-7.17,-6.90,-209.10,-409.20,24.9
2026/04/22 21:52:40.45,IMU,295.41,32.71,-949.71,-12.82,30.76,22.86,-7.65,-207.30,-409.95,24.7
2026/04/22 21:52:40.55,IMU,237.79,-30.76,-995.61,9.58,-15.40,-11.14,-8.55,-207.75,-410.10,25.2
2026/04/22 21:52:40.65,IMU,134.28,-51.76,-979.49,-1.82,2.66,-2.40,-8.70,-207.60,-409.95,25.0
2026/04/22 21:52:40.75,IMU,227.05,-14.16,-977.54,-0.11,4.41,0.01,-9.00,-205.20,-410.55,24.9
2026/04/22 21:52:40.85,IMU,217.77,-32.71,-993.16,1.47,-12.59,-4.53,-8.40,-205.65,-411.45,25.1
2026/04/22 21:52:40.95,IMU,166.02,-51.27,-994.14,1.15,-5.24,-1.25,-7.35,-206.55,-410.70,24.9
2026/04/22 21:52:41.05,IMU,185.55,-25.88,-1011.23,3.21,-5.89,2.79,-6.75,-206.70,-410.10,25.2
2026/04/22 21:52:41.15,IMU,160.16,-66.41,-998.54,3.04,-1.72,-1.27,-6.60,-207.60,-410.25,25.2
2026/04/22 21:52:41.25,IMU,144.04,-65.92,-1002.93,0.47,1.69,-2.61,-6.60,-207.60,-409.65,25.1
2026/04/22 21:52:41.35,IMU,162.11,-42.48,-998.05,-1.27,3.48,1.59,-6.30,-207.45,-410.10,25.1
2026/04/22 21:52:41.45,IMU,148.93,-54.20,-994.63,-2.27,3.53,1.82,-6.75,-207.00,-411.60,25.3
2026/04/22 21:52:41.56,IMU,183.11,-44.43,-993.65,-0.81,9.21,2.83,-6.00,-207.45,-410.10,24.8
2026/04/22 21:52:41.66,IMU,221.68,-30.27,-1004.88,0.03,-0.61,-1.35,-6.75,-207.75,-410.85,25.2
2026/04/22 21:52:41.76,IMU,167.97,-44.43,-996.09,-1.75,0.72,-2.16,-7.65,-206.85,-410.25,25.2
2026/04/22 21:52:41.86,IMU,212.40,-22.46,-997.07,-0.01,2.58,1.26,-8.25,-207.00,-410.55,25.2
2026/04/22 21:52:41.96,IMU,203.13,-38.57,-987.79,0.85,-0.09,1.55,-10.05,-206.25,-406.50,25.2
2026/04/22 21:52:42.06,IMU,184.57,-49.80,-1000.49,0.76,2.41,-4.24,-7.80,-207.00,-409.80,25.3
2026/04/22 21:52:42.16,IMU,104.00,-45.90,-973.14,-3.06,15.64,7.67,-9.45,-206.85,-409.95,25.2
2026/04/22 21:52:42.26,IMU,329.10,-68.36,-1077.15,-29.32,35.89,16.03,-13.65,-207.75,-408.75,25.2
2026/04/22 21:52:42.36,IMU,387.21,54.69,-886.23,-5.92,5.02,2.11,-16.35,-204.75,-409.05,25.2
2026/04/22 21:52:42.46,IMU,335.94,19.04,-950.20,25.76,-32.74,-2.40,-15.45,-206.55,-407.10,24.9
2026/04/22 21:52:42.56,IMU,164.55,-62.01,-1012.21,36.98,-44.35,-1.85,-12.75,-208.95,-405.75,25.3
2026/04/22 21:52:42.66,IMU,116.70,-155.76,-993.65,30.56,-28.92,13.18,-9.75,-212.70,-402.90,25.2
2026/04/22 21:52:42.76,IMU,104.98,-179.69,-1034.67,12.84,-5.53,7.86,-6.00,-214.65,-401.40,25.0
2026/04/22 21:52:42.86,IMU,94.73,-155.76,-1044.92,-4.53,2.52,-0.59,-10.35,-218.10,-396.75,25.2
2026/04/22 21:52:42.96,IMU,166.02,-115.72,-1033.69,0.83,-9.73,-8.60,-11.85,-215.40,-398.25,25.2
2026/04/22 21:52:43.07,IMU,30.76,-131.35,-994.63,6.27,-0.56,-9.78,-7.80,-212.40,-402.60,25.1
2026/04/22 21:52:43.17,IMU,109.37,-168.95,-988.28,-0.85,7.56,2.44,-9.00,-211.95,-401.85,25.3
2026/04/22 21:52:43.27,IMU,140.14,-143.07,-989.75,2.51,4.12,-4.72,-9.00,-213.15,-402.60,25.2
2026/04/22 21:52:43.37,IMU,134.77,-152.83,-991.21,-0.11,1.37,-0.07,-10.05,-213.90,-401.40,25.3
2026/04/22 21:52:43.47,IMU,119.63,-135.74,-980.47,2.76,5.50,-1.59,-10.05,-213.90,-402.15,25.2
2026/04/22 21:52:43.57,IMU,144.04,-172.85,-1022.95,11.79,9.47,-11.00,-11.10,-214.65,-402.60,25.2
2026/04/22 21:52:43.67,IMU,166.50,-219.73,-991.70,2.24,-1.56,2.18,-10.95,-214.50,-402.00,25.1
2026/04/22 21:52:43.77,IMU,119.63,-160.64,-992.19,-1.60,-1.27,1.15,-11.55,-213.45,-402.15,25.1
2026/04/22 21:52:43.87,IMU,143.07,-162.11,-976.07,2.04,-0.92,2.11,-10.65,-213.30,-402.75,25.2
2026/04/22 21:52:43.98,IMU,129.39,-177.73,-1003.91,-0.07,-0.50,1.43,-13.95,-216.30,-398.10,25.1
2026/04/22 21:52:44.08,IMU,152.83,-169.43,-993.16,-0.25,0.28,0.56,-10.35,-213.45,-401.10,25.2
2026/04/22 21:52:44.18,IMU,120.12,-157.23,-979.98,0.15,1.16,0.29,-11.10,-214.65,-400.05,25.3
2026/04/22 21:52:44.28,IMU,145.02,-165.04,-993.65,1.57,2.89,0.89,-10.80,-213.45,-401.40,25.3
2026/04/22 21:52:44.38,IMU,143.07,-167.48,-992.68,-0.92,-2.69,1.06,-11.40,-213.00,-400.20,25.3
2026/04/22 21:52:44.48,IMU,124.02,-165.53,-992.68,-1.46,-2.78,-1.24,-9.15,-213.75,-402.75,25.4
2026/04/22 21:52:44.58,IMU,138.67,-175.29,-992.68,0.69,-5.56,3.43,-8.70,-214.05,-402.30,25.4
2026/04/22 21:52:44.68,IMU,114.75,-153.32,-988.28,0.98,2.82,1.73,-8.40,-214.50,-401.25,25.2
2026/04/22 21:52:44.78,IMU,101.07,-168.95,-997.07,0.72,-0.11,1.73,-8.70,-214.50,-401.25,25.1
2026/04/22 21:52:44.90,IMU,129.88,-157.71,-1001.46,-1.28,3.76,0.60,-9.30,-212.40,-401.85,25.2
2026/04/22 21:52:45.00,IMU,120.12,-152.83,-997.56,-0.38,-2.16,-0.61,-11.70,-217.05,-396.60,25.4
2026/04/22 21:52:45.10,IMU,106.45,-171.88,-1000.98,1.48,-0.29,-1.08,-6.90,-214.05,-403.50,25.3
2026/04/22 21:52:45.20,IMU,109.37,-165.04,-1006.35,-1.72,-0.51,-3.48,-7.50,-213.15,-403.20,25.1
2026/04/22 21:52:45.30,IMU,122.56,-150.39,-986.82,0.15,-1.95,-1.66,-7.80,-214.20,-402.90,25.3
2026/04/22 21:52:45.40,IMU,118.16,-162.60,-1003.91,0.65,0.24,-1.50,-8.40,-214.05,-402.30,25.2
2026/04/22 21:52:45.50,IMU,125.98,-143.07,-993.16,-0.79,-0.75,-0.93,-8.70,-213.30,-402.00,25.1
2026/04/22 21:52:45.60,IMU,116.70,-160.16,-991.21,0.30,-0.02,-0.98,-8.40,-214.50,-403.05,25.3
2026/04/22 21:52:45.70,IMU,118.16,-153.81,-994.63,0.05,0.23,-1.03,-9.45,-214.50,-400.95,25.3
2026/04/22 21:52:45.80,IMU,123.54,-158.20,-998.54,0.35,3.84,1.60,-9.15,-214.05,-402.00,25.2
2026/04/22 21:52:45.90,IMU,118.16,-157.23,-988.28,3.14,-0.54,0.38,-7.50,-213.15,-401.40,25.3
2026/04/22 21:52:46.00,IMU,119.14,-146.48,-986.82,0.71,2.68,1.58,-9.00,-214.65,-402.15,25.2
2026/04/22 21:52:46.10,IMU,124.51,-151.37,-995.61,0.05,-2.34,0.13,-8.25,-213.90,-402.90,25.3
2026/04/22 21:52:46.20,IMU,147.46,-165.53,-998.05,0.95,0.59,0.92,-9.00,-213.90,-402.90,25.4
2026/04/22 21:52:46.30,IMU,122.07,-148.93,-999.02,-0.69,0.13,0.66,-8.55,-213.90,-401.85,25.4
2026/04/22 21:52:46.40,IMU,143.07,-140.63,-1007.81,0.33,-0.95,3.21,-7.95,-213.30,-400.50,25.4
2026/04/22 21:52:46.50,IMU,119.63,-148.93,-991.70,-1.74,-0.92,-0.49,-8.25,-212.70,-402.60,25.2
2026/04/22 21:52:46.60,IMU,139.16,-155.76,-985.84,-0.50,-0.62,0.39,-7.95,-214.50,-402.30,25.1
2026/04/22 21:52:46.70,IMU,132.81,-165.04,-1056.64,-12.32,-5.66,0.52,-8.55,-214.95,-402.60,25.4
2026/04/22 21:52:46.80,IMU,123.54,-103.52,-973.63,-10.94,-1.23,-0.89,-7.65,-211.35,-405.30,25.3
2026/04/22 21:52:46.90,IMU,121.09,-114.75,-1006.35,1.40,1.63,-2.05,-7.80,-211.65,-405.45,25.2
2026/04/22 21:52:47.00,IMU,134.77,-122.56,-1018.07,-0.89,5.27,5.76,-8.70,-210.60,-404.85,25.3
2026/04/22 21:52:47.10,IMU,125.49,-98.63,-1017.09,-0.45,5.89,2.24,-8.55,-211.65,-403.95,25.2
2026/04/22 21:52:47.20,IMU,148.44,-97.66,-969.73,-6.93,5.50,-0.55,-9.75,-210.45,-406.50,25.3
2026/04/22 21:52:47.30,IMU,145.51,-85.45,-1008.30,0.07,0.92,2.60,-9.00,-210.45,-405.45,25.2
2026/04/22 21:52:47.40,IMU,134.28,-101.56,-1009.28,0.15,-1.55,0.92,-8.70,-209.85,-405.60,25.4
2026/04/22 21:52:47.51,IMU,151.86,-106.93,-1002.44,0.89,1.33,-0.89,-9.15,-211.05,-406.05,25.3
2026/04/22 21:52:47.61,IMU,137.21,-105.47,-979.98,1.46,2.66,-1.50,-7.05,-209.70,-405.45,25.2
2026/04/22 21:52:47.71,IMU,156.74,-95.21,-992.68,1.89,3.56,-1.49,-8.40,-210.60,-405.30,25.1
2026/04/22 21:52:47.81,IMU,149.90,-110.35,-1004.88,0.96,-0.22,-1.33,-8.55,-210.15,-406.50,25.4
2026/04/22 21:52:47.91,IMU,144.04,-96.19,-1013.18,3.56,-0.52,1.76,-9.15,-210.30,-405.30,25.3
2026/04/22 21:52:48.01,IMU,142.09,-102.54,-992.19,1.78,1.75,3.53,-7.65,-211.35,-404.85,25.3
2026/04/22 21:52:48.11,IMU,127.93,-99.61,-1000.49,2.27,-2.00,-4.78,-9.30,-210.45,-405.15,25.4
2026/04/22 21:52:48.21,IMU,135.25,-116.70,-989.75,-1.15,3.95,-1.49,-8.55,-210.90,-406.20,25.1
2026/04/22 21:52:48.31,IMU,146.97,-99.61,-989.75,0.45,0.60,-1.46,-8.70,-210.30,-406.35,25.3
2026/04/22 21:52:48.41,IMU,136.72,-116.70,-1002.44,-1.64,0.35,0.15,-6.90,-209.55,-404.85,25.5
2026/04/22 21:52:48.51,IMU,151.86,-99.61,-1000.98,0.02,1.36,-3.22,-8.55,-211.20,-404.70,25.3
2026/04/22 21:52:48.61,IMU,145.02,-103.52,-1008.30,0.66,1.96,-0.95,-7.35,-211.80,-404.85,25.3
2026/04/22 21:52:48.71,IMU,152.34,-110.35,-1003.42,0.60,0.59,-0.24,-8.25,-211.20,-403.95,25.2
2026/04/22 21:52:48.81,IMU,176.76,-93.75,-1007.32,1.14,1.30,-0.64,-9.00,-211.65,-405.45,25.2
2026/04/22 21:52:48.91,IMU,142.09,-103.52,-1008.30,0.76,-0.79,2.94,-8.70,-209.85,-404.55,25.2
2026/04/22 21:52:49.01,IMU,140.14,-100.59,-993.16,2.43,1.53,0.58,-7.50,-211.95,-405.15,25.4
2026/04/22 21:52:49.11,IMU,148.44,-115.23,-993.65,-0.27,-0.02,-0.06,-8.40,-211.80,-404.85,25.3
2026/04/22 21:52:49.21,IMU,144.04,-100.10,-999.51,-0.17,1.53,-0.03,-7.65,-211.80,-404.25,25.4
2026/04/22 21:52:49.31,IMU,147.95,-109.86,-1001.95,0.10,-0.95,1.02,-7.65,-211.05,-405.30,25.4
2026/04/22 21:52:49.41,IMU,147.95,-114.26,-985.84,-0.11,0.69,-0.66,-7.95,-211.35,-406.05,25.2
2026/04/22 21:52:49.51,IMU,147.95,-105.96,-997.56,-1.23,-1.21,-1.63,-7.35,-211.05,-405.30,25.4
2026/04/22 21:52:49.61,IMU,154.30,-108.89,-1002.93,0.50,1.91,0.11,-6.75,-210.90,-405.45,25.2
2026/04/22 21:52:49.71,IMU,145.02,-98.63,-987.79,0.53,-0.27,1.39,-7.50,-211.65,-404.40,25.4
2026/04/22 21:52:49.81,IMU,144.53,-104.00,-989.75,-1.50,0.28,2.63,-7.50,-210.15,-403.65,25.4
2026/04/22 21:52:49.91,IMU,128.91,-122.56,-1010.25,-0.60,1.15,-2.50,-7.50,-210.90,-406.50,25.3
2026/04/22 21:52:50.01,IMU,141.60,-110.35,-1001.46,-1.14,3.51,1.47,-6.60,-211.05,-405.60,25.3
2026/04/22 21:52:50.11,IMU,158.20,-96.68,-996.09,0.26,-0.36,-0.69,-11.85,-212.70,-402.60,25.2
2026/04/22 21:52:50.21,IMU,140.63,-97.66,-993.65,0.91,-1.54,-1.81,-7.80,-210.90,-404.70,25.2
2026/04/22 21:52:50.31,IMU,132.81,-99.61,-999.51,1.35,-2.82,2.24,-6.90,-211.05,-406.35,25.3
2026/04/22 21:52:50.41,IMU,136.72,-113.28,-1000.00,-0.38,3.61,2.12,-7.80,-209.70,-406.95,25.4
2026/04/22 21:52:50.51,IMU,137.70,-110.84,-991.70,2.31,-2.60,2.38,-8.25,-209.70,-404.70,25.2
2026/04/22 21:52:50.61,IMU,142.09,-111.33,-987.79,-1.95,0.40,-1.27,-7.35,-210.60,-404.55,25.3
2026/04/22 21:52:50.71,IMU,129.88,-109.86,-1004.88,0.83,1.84,-1.27,-7.35,-211.80,-405.30,25.3
2026/04/22 21:52:50.81,IMU,123.54,-100.10,-999.02,0.77,-0.46,3.06,-8.55,-210.90,-405.45,25.2
2026/04/22 21:52:50.91,IMU,124.02,-119.14,-1006.84,-0.68,2.60,1.91,-7.95,-209.85,-405.60,25.3
2026/04/22 21:52:51.02,IMU,147.46,-99.61,-1006.35,-0.11,0.34,1.07,-7.95,-209.85,-405.60,25.5
2026/04/22 21:52:51.12,IMU,142.58,-115.72,-999.51,-1.60,6.84,-2.04,-9.30,-215.40,-403.20,24.9
2026/04/22 21:52:51.22,IMU,190.43,-69.82,-981.45,-3.31,11.59,2.92,-7.65,-210.60,-404.85,25.3
2026/04/22 21:52:51.32,IMU,161.13,-110.35,-1000.49,2.97,13.73,-12.76,-12.45,-210.30,-404.85,25.4
2026/04/22 21:52:51.42,IMU,272.95,-93.75,-1000.00,5.38,11.93,9.13,-13.20,-210.60,-403.80,25.4
2026/04/22 21:52:51.53,IMU,216.31,-104.49,-979.49,9.01,-3.49,-3.58,-13.20,-211.35,-403.80,24.9
2026/04/22 21:52:51.63,IMU,249.51,-165.53,-986.33,17.08,-21.13,4.70,-13.20,-211.35,-402.30,25.3
2026/04/22 21:52:51.73,IMU,129.88,-155.76,-1043.95,20.75,-15.22,-0.89,-10.35,-214.20,-401.40,25.0
2026/04/22 21:52:51.83,IMU,66.89,-121.09,-973.14,-11.10,-17.73,5.08,-11.40,-213.30,-401.70,25.3
2026/04/22 21:52:51.93,IMU,299.80,-105.47,-923.34,-13.49,-10.68,17.31,-10.05,-213.45,-403.20,25.2
2026/04/22 21:52:52.03,IMU,148.93,-157.71,-1003.91,-8.53,-2.79,-7.60,-8.25,-214.20,-404.70,25.1
2026/04/22 21:52:52.14,IMU,200.20,-65.92,-1062.50,-29.09,-4.19,-10.47,-14.70,-214.05,-401.25,25.3
2026/04/22 21:52:52.24,IMU,83.50,-10.74,-1020.02,-29.04,-2.56,8.53,-11.40,-209.55,-409.95,25.2
2026/04/22 21:52:52.34,IMU,49.80,-27.83,-1001.46,-15.81,-34.81,13.33,-8.70,-205.35,-412.80,25.3
2026/04/22 21:52:52.44,IMU,69.82,-84.96,-979.49,-13.24,48.44,62.18,-7.95,-205.65,-415.80,25.3
2026/04/22 21:52:52.54,IMU,276.86,41.02,-984.86,-18.01,21.40,56.93,-8.70,-203.40,-415.05,25.2
2026/04/22 21:52:52.64,IMU,229.98,90.33,-1159.67,7.87,8.15,9.13,-7.05,-201.75,-415.95,25.3
2026/04/22 21:52:52.74,IMU,208.98,43.46,-1053.22,9.25,2.36,-4.34,-5.85,-206.55,-415.05,25.3
2026/04/22 21:52:52.84,IMU,78.12,41.02,-1007.81,22.66,-88.65,9.37,0.00,-205.65,-414.60,25.2
2026/04/22 21:52:52.94,IMU,-9.77,-36.13,-1122.56,9.98,-3.94,70.59,5.40,-206.55,-409.95,25.3
2026/04/22 21:52:53.04,IMU,-10.74,-92.29,-1046.39,-15.11,-14.10,25.44,9.90,-205.35,-411.75,25.3
2026/04/22 21:52:53.14,IMU,20.51,-50.29,-962.89,3.66,-15.73,31.69,15.60,-203.25,-409.80,25.4
2026/04/22 21:52:53.24,IMU,91.80,-18.55,-1062.01,-7.61,-34.57,9.34,18.15,-202.50,-409.05,25.2
2026/04/22 21:52:53.34,IMU,-36.62,-9.77,-992.68,10.45,-23.30,-27.98,20.85,-201.90,-407.40,25.3
2026/04/22 21:52:53.44,IMU,-161.62,-13.67,-996.58,11.16,-26.48,11.72,21.75,-204.75,-405.75,25.4
2026/04/22 21:52:53.54,IMU,-280.76,-9.28,-979.98,0.88,9.95,2.85,22.35,-203.85,-404.85,25.3
2026/04/22 21:52:53.64,IMU,-155.76,-59.08,-954.59,-0.44,20.67,21.02,22.50,-204.45,-405.15,25.2
2026/04/22 21:52:53.74,IMU,-18.07,-21.97,-1021.00,4.69,24.89,17.48,22.35,-201.90,-406.65,25.3
2026/04/22 21:52:53.84,IMU,-57.62,-23.93,-986.82,3.56,1.58,-2.59,22.80,-200.40,-407.85,25.2
2026/04/22 21:52:53.94,IMU,6.84,-31.25,-1023.44,-3.41,5.84,22.17,22.80,-201.90,-406.35,25.3
2026/04/22 21:52:54.04,IMU,-62.99,-51.27,-1010.25,-0.89,-14.37,-1.20,24.45,-201.30,-406.20,25.5
2026/04/22 21:52:54.14,IMU,-53.71,13.67,-995.12,-2.50,-4.44,9.81,24.15,-199.65,-404.85,25.4
2026/04/22 21:52:54.24,IMU,-25.88,40.04,-998.05,-1.60,-8.36,-1.97,26.40,-197.70,-403.80,25.4
2026/04/22 21:52:54.34,IMU,-118.16,-29.79,-993.65,-6.14,-8.22,-2.53,26.40,-198.15,-405.30,25.2
2026/04/22 21:52:54.44,IMU,-104.49,-8.79,-996.09,-3.43,-7.46,-2.34,27.15,-198.45,-404.55,25.2
2026/04/22 21:52:54.55,IMU,-101.07,8.79,-1001.46,-13.80,-8.27,3.05,27.90,-197.40,-403.80,25.3
2026/04/22 21:52:54.65,IMU,-162.11,26.86,-1000.00,0.37,-11.83,7.31,27.75,-196.80,-405.15,25.2
2026/04/22 21:52:54.75,IMU,-138.18,28.32,-1024.90,9.17,-18.00,20.06,29.25,-198.75,-402.90,25.2
2026/04/22 21:52:54.85,IMU,-175.78,25.88,-1026.86,7.64,-21.40,13.05,31.05,-197.10,-401.10,25.3
2026/04/22 21:52:54.95,IMU,-187.99,10.25,-1000.49,0.01,-15.34,-1.76,35.25,-195.90,-399.15,25.4
2026/04/22 21:52:55.05,IMU,-239.26,30.76,-966.80,-5.18,-19.05,-6.24,35.10,-196.05,-398.25,25.3
2026/04/22 21:52:55.15,IMU,-292.48,21.00,-981.45,-1.25,-2.95,1.29,36.75,-195.90,-396.90,25.2
2026/04/22 21:52:55.25,IMU,-251.46,17.58,-972.17,0.24,2.30,1.00,35.85,-194.55,-397.80,25.3
2026/04/22 21:52:55.35,IMU,-272.46,18.07,-963.38,0.02,-2.27,-2.88,36.60,-195.30,-399.00,25.4
2026/04/22 21:52:55.45,IMU,-280.27,6.84,-986.33,0.86,-1.86,2.13,36.75,-195.90,-396.90,25.4
2026/04/22 21:52:55.55,IMU,-268.55,3.42,-1006.35,4.98,5.33,1.13,36.15,-196.35,-396.45,25.2
2026/04/22 21:52:55.65,IMU,-298.34,5.86,-964.36,-0.44,2.58,-9.50,36.00,-197.70,-396.90,25.3
2026/04/22 21:52:55.75,IMU,-259.77,16.11,-973.63,-3.65,-1.18,2.99,36.15,-197.10,-398.25,25.0
2026/04/22 21:52:55.85,IMU,-270.51,18.07,-981.93,-3.03,0.45,-0.79,36.15,-197.55,-397.80,25.2
2026/04/22 21:52:55.95,IMU,-283.69,14.16,-979.98,1.77,-1.09,-1.47,35.55,-197.40,-398.70,25.4
2026/04/22 21:52:56.05,IMU,-266.11,30.76,-989.75,-2.56,-1.06,2.09,36.00,-196.65,-396.60,25.2
2026/04/22 21:52:56.15,IMU,-267.09,30.27,-926.27,0.70,-3.26,-1.71,36.30,-195.45,-397.65,25.4
2026/04/22 21:52:56.25,IMU,-286.13,26.86,-979.49,4.93,1.57,6.82,35.40,-197.10,-397.20,25.3
2026/04/22 21:52:56.35,IMU,-252.93,4.88,-990.23,4.48,3.90,1.88,37.50,-195.90,-397.35,25.5
2026/04/22 21:52:56.45,IMU,-252.93,12.21,-989.26,-0.56,0.30,1.70,36.60,-195.30,-397.50,25.5
2026/04/22 21:52:56.55,IMU,-272.95,16.60,-960.94,-0.58,-4.74,-4.82,35.55,-194.70,-396.60,25.4
2026/04/22 21:52:56.65,IMU,-278.32,13.67,-985.84,-2.50,2.42,6.03,36.15,-196.35,-398.55,25.2
2026/04/22 21:52:56.75,IMU,-255.86,9.77,-975.10,-2.11,1.26,-1.62,34.95,-195.45,-398.40,25.4
2026/04/22 21:52:56.85,IMU,-274.41,36.13,-977.54,1.67,-1.76,2.93,35.85,-196.35,-399.00,25.2
2026/04/22 21:52:56.95,IMU,-265.14,15.14,-996.09,0.43,0.17,-3.15,35.25,-195.90,-396.60,25.6
2026/04/22 21:52:57.05,IMU,-269.53,17.58,-978.03,1.92,0.24,-0.30,37.65,-195.60,-396.75,25.4
2026/04/22 21:52:57.15,IMU,-265.63,27.83,-983.40,-1.37,0.09,-1.81,36.60,-194.85,-397.20,25.2
2026/04/22 21:52:57.25,IMU,-274.90,25.39,-965.33,-1.76,-1.99,0.89,34.95,-195.45,-395.85,25.4
2026/04/22 21:52:57.35,IMU,-249.02,25.88,-985.35,-0.15,1.17,-1.09,37.65,-195.60,-397.20,25.4
2026/04/22 21:52:57.45,IMU,-300.78,18.55,-965.82,0.53,3.35,-5.22,35.85,-196.05,-397.50,25.3
2026/04/22 21:52:57.55,IMU,-283.20,25.88,-970.70,1.98,5.85,1.02,35.10,-196.35,-399.00,25.3
2026/04/22 21:52:57.65,IMU,-259.77,20.02,-963.38,2.79,5.66,0.95,36.30,-197.40,-397.65,25.3
2026/04/22 21:52:57.75,IMU,-250.98,22.46,-991.21,-1.08,0.46,-2.18,35.40,-195.30,-396.75,25.4
2026/04/22 21:52:57.85,IMU,-297.36,6.35,-978.52,-1.16,2.79,-0.64,34.50,-195.90,-398.10,25.4
2026/04/22 21:52:57.95,IMU,-231.45,38.09,-981.93,-1.35,-0.35,-0.89,33.45,-197.70,-395.55,25.4
2026/04/22 21:52:58.05,IMU,-249.02,23.44,-967.77,-0.29,3.29,-2.50,35.10,-194.85,-397.80,25.4
2026/04/22 21:52:58.16,IMU,-253.91,16.60,-983.40,2.69,3.82,1.70,34.95,-196.65,-398.40,25.4
2026/04/22 21:52:58.26,IMU,-247.07,13.67,-983.40,0.56,-0.85,1.56,32.55,-198.00,-393.15,25.3
2026/04/22 21:52:58.36,IMU,-255.86,1.95,-979.00,1.34,3.28,6.90,35.40,-196.05,-398.25,25.4
2026/04/22 21:52:58.46,IMU,-255.86,27.83,-991.21,1.32,-1.35,-5.25,35.10,-196.80,-398.55,25.3
2026/04/22 21:52:58.56,IMU,-241.21,10.74,-979.00,-0.02,1.73,-3.80,33.75,-196.65,-397.65,25.5
2026/04/22 21:52:58.66,IMU,-254.88,14.65,-978.03,0.66,-2.02,-2.74,35.40,-196.35,-399.00,25.4
2026/04/22 21:52:58.76,IMU,-244.14,15.63,-990.72,-1.05,-0.56,0.11,37.05,-196.20,-398.70,25.1
2026/04/22 21:52:58.86,IMU,-247.07,18.55,-973.63,-0.07,-6.93,-1.40,35.40,-196.35,-396.75,25.4
2026/04/22 21:52:58.96,IMU,-240.72,17.09,-991.70,0.86,1.34,2.60,35.55,-197.70,-398.10,25.5
2026/04/22 21:52:59.06,IMU,-265.14,4.39,-986.33,0.05,1.92,-0.20,35.25,-196.65,-398.70,25.3
2026/04/22 21:52:59.16,IMU,-260.25,20.51,-974.12,-0.76,0.20,2.88,36.60,-196.05,-398.25,25.4
2026/04/22 21:52:59.26,IMU,-250.98,14.65,-995.12,0.79,2.75,-2.18,33.75,-197.70,-399.15,25.3
2026/04/22 21:52:59.36,IMU,-240.72,15.63,-971.19,1.01,1.45,2.49,35.10,-196.80,-399.00,25.4
2026/04/22 21:52:59.46,IMU,-269.04,23.93,-956.05,0.69,3.00,0.60,35.85,-196.05,-398.25,25.4
2026/04/22 21:52:59.56,IMU,-239.26,5.37,-977.05,-0.48,1.29,-1.29,35.10,-197.10,-397.80,25.4
2026/04/22 21:52:59.66,IMU,-247.07,21.97,-985.35,-0.89,0.86,2.18,35.10,-197.55,-399.60,25.3
2026/04/22 21:52:59.76,IMU,-258.30,8.30,-989.75,2.33,1.63,0.93,35.25,-197.40,-399.90,25.5
2026/04/22 21:52:59.86,IMU,-242.19,6.84,-991.21,0.68,1.30,-0.79,35.40,-196.35,-396.75,25.4
2026/04/22 21:52:59.97,IMU,-227.05,7.81,-989.75,-0.53,1.48,-0.51,36.75,-196.65,-399.45,25.7
2026/04/22 21:53:00.07,IMU,-232.91,20.51,-971.68,0.27,0.72,0.51,33.60,-196.80,-398.55,25.6
2026/04/22 21:53:00.17,IMU,-253.91,11.72,-991.70,-2.37,1.78,1.21,34.65,-197.10,-399.30,25.5
2026/04/22 21:53:00.27,IMU,-248.54,15.63,-991.21,-1.05,3.05,1.52,35.25,-198.90,-399.45,25.6
2026/04/22 21:53:00.37,IMU,-234.86,12.70,-979.98,0.71,0.47,-0.63,35.40,-197.10,-399.00,25.4
2026/04/22 21:53:00.47,IMU,-245.12,8.79,-985.84,-0.28,1.15,2.82,35.40,-196.80,-399.60,25.8
2026/04/22 21:53:00.57,IMU,-234.38,22.95,-982.42,0.76,-0.52,1.47,34.50,-196.20,-399.45,25.6
2026/04/22 21:53:00.68,IMU,-229.98,10.74,-978.03,-1.21,2.30,-1.80,35.25,-197.70,-397.65,25.7
2026/04/22 21:53:00.78,IMU,-241.70,12.70,-967.77,-1.18,0.50,1.19,33.75,-196.65,-399.15,25.7
2026/04/22 21:53:00.88,IMU,-229.00,17.09,-986.82,-1.54,1.81,4.02,33.90,-196.80,-400.05,25.4
2026/04/22 21:53:00.98,IMU,-241.21,4.88,-982.42,-1.37,1.46,-0.38,34.65,-196.80,-399.30,25.8
2026/04/22 21:53:01.08,IMU,-227.05,2.44,-998.54,-1.48,0.05,-0.77,35.25,-196.20,-398.70,25.8
2026/04/22 21:53:01.18,IMU,-251.95,25.88,-984.38,-0.14,-1.42,-2.69,33.60,-196.05,-401.40,25.4
2026/04/22 21:53:01.28,IMU,-231.45,17.58,-1002.93,2.08,1.30,-1.81,33.60,-196.80,-401.40,25.4
2026/04/22 21:53:01.38,IMU,-245.61,5.86,-980.96,1.42,2.66,-0.66,33.60,-196.35,-399.00,25.4
2026/04/22 21:53:01.48,IMU,-221.68,8.79,-981.45,-0.95,1.13,0.21,33.60,-196.80,-398.55,25.7
2026/04/22 21:53:01.58,IMU,-234.38,6.35,-988.77,0.79,-0.48,1.85,34.95,-195.45,-400.20,25.5
2026/04/22 21:53:01.68,IMU,-235.84,12.70,-986.82,-0.64,0.35,-1.96,33.75,-197.70,-400.50,25.6
2026/04/22 21:53:01.78,IMU,-240.23,35.64,-1075.20,-0.64,-0.95,-0.29,33.60,-198.00,-400.05,25.7
2026/04/22 21:53:01.88,IMU,-241.21,9.77,-998.54,-1.21,0.28,-1.45,33.75,-197.40,-399.90,25.7
2026/04/22 21:53:01.98,IMU,-228.03,13.67,-988.77,0.23,1.18,3.21,33.00,-197.40,-400.20,25.5
2026/04/22 21:53:02.08,IMU,-225.10,18.07,-984.38,0.53,1.62,2.66,34.50,-196.95,-400.50,25.7
2026/04/22 21:53:02.18,IMU,-222.66,23.44,-979.98,1.82,1.11,0.83,33.90,-196.35,-400.05,25.7
2026/04/22 21:53:02.28,IMU,-219.73,21.48,-990.23,0.05,1.79,-2.67,34.95,-196.20,-400.20,25.7
2026/04/22 21:53:02.38,IMU,-216.31,14.65,-984.86,-1.67,0.37,0.76,33.45,-198.45,-398.40,25.7
2026/04/22 21:53:02.48,IMU,-228.52,20.02,-1008.30,-0.53,-1.55,1.69,33.45,-196.65,-399.45,25.7
2026/04/22 21:53:02.58,IMU,-233.40,17.09,-992.68,0.44,-0.63,0.48,34.50,-197.40,-400.95,25.7
2026/04/22 21:53:02.68,IMU,-231.45,28.32,-997.07,2.21,-0.64,-4.76,34.50,-196.65,-399.90,25.8
2026/04/22 21:53:02.78,IMU,-228.03,21.48,-986.82,-0.64,0.44,0.73,34.50,-197.70,-399.15,25.7
2026/04/22 21:53:02.88,IMU,-234.38,21.97,-991.70,0.27,1.30,-0.31,34.35,-197.10,-398.25,25.9
2026/04/22 21:53:02.98,IMU,-243.16,17.58,-980.96,1.01,-1.60,3.67,33.30,-197.55,-400.35,25.6
2026/04/22 21:53:03.08,IMU,-250.98,19.53,-989.26,0.35,3.22,-1.64,32.55,-195.60,-400.35,25.8
2026/04/22 21:53:03.18,IMU,-237.79,-0.49,-989.75,0.85,-1.86,-1.18,34.35,-196.35,-400.05,25.7
2026/04/22 21:53:03.28,IMU,-211.91,20.02,-986.33,1.14,-3.24,1.61,33.60,-196.80,-400.35,25.7
2026/04/22 21:53:03.38,IMU,-244.14,28.81,-983.40,-0.37,-0.38,1.29,33.00,-197.70,-399.90,25.8
2026/04/22 21:53:03.48,IMU,-229.00,20.02,-984.86,-2.75,-0.82,-0.47,33.45,-197.40,-399.45,25.9
2026/04/22 21:53:03.58,IMU,-232.42,19.53,-985.84,-2.48,-0.44,0.86,33.45,-196.95,-400.50,25.8
2026/04/22 21:53:03.68,IMU,-237.30,20.51,-997.07,-0.39,0.29,1.28,33.30,-195.60,-400.80,25.9
2026/04/22 21:53:03.78,IMU,-242.19,15.63,-995.12,-0.21,0.26,0.98,35.25,-198.15,-399.15,25.5
2026/04/22 21:53:03.88,IMU,-223.63,27.34,-964.36,-1.28,0.25,-0.25,34.50,-197.40,-401.25,25.9
2026/04/22 21:53:03.98,IMU,-216.31,27.83,-980.96,-1.26,2.83,-0.63,33.30,-196.35,-400.35,25.9
2026/04/22 21:53:04.09,IMU,-243.65,9.28,-984.38,-2.32,1.80,1.28,33.90,-198.30,-400.05,25.9
2026/04/22 21:53:04.19,IMU,-208.98,20.51,-987.30,-1.24,-0.53,-1.17,33.60,-196.80,-400.35,25.7
2026/04/22 21:53:04.29,IMU,-219.24,23.44,-981.93,0.83,1.05,-0.15,34.50,-197.40,-401.25,25.7
2026/04/22 21:53:04.39,IMU,-223.14,31.74,-974.61,-1.03,2.33,-0.18,31.95,-198.15,-398.10,25.9
2026/04/22 21:53:04.49,IMU,-211.91,21.48,-998.54,-3.36,3.77,-0.13,33.30,-197.55,-400.05,26.1
2026/04/22 21:53:04.59,IMU,-210.94,28.81,-966.80,2.02,5.25,1.82,33.00,-195.90,-399.90,25.8
2026/04/22 21:53:04.69,IMU,-196.29,41.99,-1006.35,1.55,1.21,-0.05,33.00,-195.45,-399.45,25.7
2026/04/22 21:53:04.79,IMU,-198.73,24.41,-1000.98,0.40,-0.66,-7.09,33.60,-195.30,-401.85,25.7
2026/04/22 21:53:04.89,IMU,-217.77,19.53,-1000.49,2.19,-1.89,-0.07,33.00,-196.95,-400.20,25.9
2026/04/22 21:53:04.99,IMU,-160.16,57.62,-987.30,-12.02,3.72,-12.15,32.55,-196.80,-402.15,25.7
2026/04/22 21:53:05.09,IMU,-242.68,23.44,-990.23,-21.27,6.64,-19.25,31.80,-197.55,-403.20,26.1
2026/04/22 21:53:05.19,IMU,-203.61,107.42,-982.42,-22.05,12.56,3.36,31.50,-196.20,-404.55,25.9
2026/04/22 21:53:05.29,IMU,-147.95,97.66,-974.12,-10.50,20.63,-11.92,27.45,-191.70,-407.10,25.9
2026/04/22 21:53:05.39,IMU,-144.53,98.14,-1039.06,-5.67,0.25,0.32,23.25,-195.60,-403.65,26.1
2026/04/22 21:53:05.49,IMU,-184.57,189.45,-930.66,-19.47,-4.52,7.12,26.10,-192.00,-409.20,26.0
2026/04/22 21:53:05.59,IMU,-157.23,158.69,-982.91,-0.63,-3.36,10.66,27.00,-189.90,-408.75,25.6
2026/04/22 21:53:05.69,IMU,-123.54,168.95,-1041.99,-10.95,-3.27,14.04,27.15,-187.80,-408.90,25.9
2026/04/22 21:53:05.80,IMU,-78.12,187.50,-959.47,-3.25,-1.17,-10.08,28.20,-186.00,-408.90,26.2
2026/04/22 21:53:05.90,IMU,-218.26,154.79,-946.29,2.47,-4.32,5.21,27.75,-188.10,-408.30,25.9
2026/04/22 21:53:06.00,IMU,-104.98,187.01,-985.84,2.50,5.81,4.91,28.80,-186.90,-408.30,26.0
2026/04/22 21:53:06.10,IMU,-119.14,179.20,-956.54,10.97,-9.06,-9.78,27.45,-188.25,-407.85,25.9
2026/04/22 21:53:06.20,IMU,-177.25,167.97,-1001.46,2.13,-3.06,4.35,27.90,-189.75,-408.15,25.7
2026/04/22 21:53:06.30,IMU,-133.79,165.04,-997.07,2.00,6.27,3.16,27.90,-188.70,-408.15,25.9
2026/04/22 21:53:06.41,IMU,-145.51,158.20,-973.63,1.25,-5.12,-4.14,23.85,-189.00,-402.75,25.9
2026/04/22 21:53:06.51,IMU,-180.66,161.62,-943.85,13.99,3.33,-0.53,27.30,-189.90,-407.55,25.9
2026/04/22 21:53:06.61,IMU,-116.70,132.81,-1035.64,-3.31,12.98,11.44,27.45,-189.75,-406.65,25.9
2026/04/22 21:53:06.71,IMU,-68.36,152.83,-1055.18,-0.90,-3.15,-10.66,27.15,-190.20,-408.15,25.9
2026/04/22 21:53:06.81,IMU,-164.55,130.86,-980.96,-9.18,-2.52,-7.95,28.05,-189.60,-408.75,25.9
2026/04/22 21:53:06.91,IMU,-121.58,172.85,-983.89,-0.01,2.37,-0.05,28.05,-189.60,-406.20,25.9
2026/04/22 21:53:07.01,IMU,-178.22,184.08,-993.65,4.22,-5.66,-1.17,27.75,-189.15,-406.95,25.8
2026/04/22 21:53:07.11,IMU,-134.77,149.90,-1018.07,-14.14,-0.01,2.01,27.75,-188.85,-408.00,25.9
2026/04/22 21:53:07.21,IMU,-173.83,170.41,-945.80,-7.03,-2.64,3.79,27.30,-188.10,-407.25,26.1
2026/04/22 21:53:07.32,IMU,-93.75,160.16,-1005.37,-3.73,-7.81,11.74,28.50,-185.85,-408.30,26.1
2026/04/22 21:53:07.42,IMU,-168.46,215.82,-948.73,-4.40,-20.14,-10.21,31.35,-185.85,-406.50,26.3
2026/04/22 21:53:07.52,IMU,-257.81,202.15,-911.62,16.82,-8.98,12.46,31.95,-183.75,-405.60,26.2
2026/04/22 21:53:07.62,IMU,-182.62,201.17,-1019.04,-5.08,-6.90,-0.98,32.70,-186.30,-404.55,26.1
2026/04/22 21:53:07.72,IMU,-253.91,171.39,-991.70,-1.03,10.27,-1.75,31.35,-185.85,-404.70,26.1
2026/04/22 21:53:07.82,IMU,-180.18,194.82,-984.86,5.02,7.10,-0.53,29.70,-186.75,-406.05,26.3
2026/04/22 21:53:07.92,IMU,-187.99,182.62,-979.49,1.04,1.39,-5.82,25.65,-190.50,-400.95,25.8
2026/04/22 21:53:08.02,IMU,-195.80,174.80,-973.63,4.63,1.10,0.69,31.35,-187.35,-405.45,26.0
2026/04/22 21:53:08.12,IMU,-196.29,187.01,-980.96,-3.98,-1.13,-4.81,29.55,-188.40,-406.50,26.3
2026/04/22 21:53:08.22,IMU,-205.57,173.83,-964.84,2.59,0.95,-2.91,29.55,-188.85,-405.75,26.2
2026/04/22 21:53:08.33,IMU,-186.52,191.89,-973.14,0.24,-0.56,5.50,30.45,-188.25,-407.10,26.1
2026/04/22 21:53:08.43,IMU,-201.66,175.78,-988.77,1.60,-4.10,1.54,30.30,-188.40,-406.20,26.1
2026/04/22 21:53:08.53,IMU,-178.22,151.37,-998.05,5.51,1.32,4.49,30.15,-188.70,-406.35,26.4
2026/04/22 21:53:08.63,IMU,-211.43,166.99,-993.65,-0.56,-2.99,-1.54,30.30,-189.90,-406.95,26.2
2026/04/22 21:53:08.73,IMU,-186.04,175.29,-987.30,0.91,-3.85,-1.38,29.70,-189.45,-406.65,26.0
2026/04/22 21:53:08.83,IMU,-218.75,146.97,-962.40,-0.16,-0.12,-2.53,30.45,-189.75,-406.65,26.3
2026/04/22 21:53:08.94,IMU,-202.64,160.64,-997.07,2.58,-3.55,-6.68,31.05,-189.60,-405.75,26.2
2026/04/22 21:53:09.04,IMU,-206.05,160.64,-974.12,2.61,-12.34,-6.29,30.90,-189.45,-404.55,26.1
2026/04/22 21:53:09.14,IMU,-259.28,146.48,-964.36,-1.15,6.34,-1.08,32.10,-190.65,-404.70,26.4
2026/04/22 21:53:09.24,IMU,-218.75,156.25,-976.56,-0.07,7.00,-3.24,29.85,-190.65,-406.50,26.3
2026/04/22 21:53:09.34,IMU,-197.75,132.81,-974.61,0.60,15.14,1.20,30.30,-190.65,-407.25,26.3
2026/04/22 21:53:09.44,IMU,-176.76,149.41,-980.96,-0.82,12.08,-2.85,28.80,-189.60,-406.95,26.1
2026/04/22 21:53:09.54,IMU,-162.60,134.28,-989.75,0.61,7.37,3.44,26.85,-190.20,-406.65,26.4
2026/04/22 21:53:09.64,IMU,-150.39,157.71,-987.30,2.82,5.08,4.37,27.15,-189.00,-407.85,26.3
2026/04/22 21:53:09.74,IMU,-142.09,147.46,-1001.46,4.30,1.37,-0.79,27.00,-190.65,-408.00,26.0
2026/04/22 21:53:09.84,IMU,-140.14,155.27,-1001.46,3.40,-0.05,-3.54,26.40,-191.25,-408.45,26.4
2026/04/22 21:53:09.94,IMU,-154.79,128.42,-991.70,3.41,1.70,-4.50,27.30,-193.35,-408.75,26.2
2026/04/22 21:53:10.04,IMU,-135.74,151.37,-984.86,0.08,2.69,0.15,26.25,-191.10,-409.35,26.3
2026/04/22 21:53:10.14,IMU,-132.81,152.83,-988.28,0.08,-0.14,-1.37,24.75,-192.30,-406.95,26.4
2026/04/22 21:53:10.24,IMU,-133.30,136.23,-990.23,3.68,-2.01,-8.39,25.65,-192.75,-407.85,26.3
2026/04/22 21:53:10.34,IMU,-144.04,122.07,-996.58,3.51,1.48,-5.95,26.10,-194.40,-408.15,26.4
2026/04/22 21:53:10.44,IMU,-126.46,113.28,-1007.32,3.67,-2.71,0.70,25.35,-195.15,-408.15,26.3
2026/04/22 21:53:10.54,IMU,-177.25,113.77,-968.26,-7.96,-7.00,-0.93,25.35,-193.95,-407.85,26.4
2026/04/22 21:53:10.64,IMU,-171.39,115.23,-1008.30,6.31,-1.08,-4.07,27.30,-193.35,-407.55,26.3
2026/04/22 21:53:10.74,IMU,-169.43,118.16,-999.02,-4.41,-2.54,-4.03,26.10,-193.50,-407.40,26.5
2026/04/22 21:53:10.84,IMU,-181.15,139.16,-994.14,0.37,0.82,-0.69,27.75,-193.35,-409.05,26.6
2026/04/22 21:53:10.94,IMU,-162.11,130.86,-987.30,-0.88,2.98,0.61,26.10,-192.45,-407.85,26.4
2026/04/22 21:53:11.04,IMU,-196.29,123.05,-995.12,6.05,-1.38,-4.39,25.50,-194.10,-407.25,26.1
2026/04/22 21:53:11.14,IMU,-175.29,102.54,-1003.91,0.64,-0.94,0.34,26.10,-194.70,-407.40,26.7
2026/04/22 21:53:11.24,IMU,-199.22,92.77,-1004.88,0.40,-2.22,-0.39,26.10,-194.70,-407.10,26.3
2026/04/22 21:53:11.34,IMU,-172.85,107.91,-999.51,-2.89,1.70,0.12,26.25,-194.55,-407.25,26.3
2026/04/22 21:53:11.44,IMU,-202.64,120.12,-1004.88,1.76,0.89,1.87,26.25,-194.10,-406.95,26.4
2026/04/22 21:53:11.54,IMU,-173.83,132.81,-997.56,3.08,0.26,-2.66,26.55,-195.30,-408.30,26.6
2026/04/22 21:53:11.64,IMU,-171.39,124.51,-972.17,-0.62,7.95,1.71,26.40,-195.15,-407.85,26.5
2026/04/22 21:53:11.74,IMU,-159.18,127.93,-990.72,-0.18,-0.93,0.57,24.90,-195.15,-408.15,26.6
2026/04/22 21:53:11.84,IMU,-196.29,106.93,-983.40,-1.27,-0.12,3.65,26.25,-194.85,-407.55,26.7
2026/04/22 21:53:11.94,IMU,-177.25,109.86,-986.82,0.35,1.37,14.07,26.25,-194.85,-408.00,26.7
2026/04/22 21:53:12.04,IMU,-163.09,141.11,-999.51,-1.69,1.74,-0.69,26.10,-193.50,-408.45,26.6
2026/04/22 21:53:12.15,IMU,-126.95,146.00,-976.07,6.11,-3.35,6.45,26.85,-191.70,-407.40,26.4
