Timestamp,Sensor,AccX,AccY,AccZ,GyrX,GyrY,GyrZ,MagX,MagY,MagZ,Temp
2026/04/22 21:55:29.02,IMU,109.86,-462.89,-1336.43,95.37,-19.51,-56.84,-18.45,-158.85,-392.10,25.2
2026/04/22 21:55:29.12,IMU,428.71,-408.69,-996.58,17.21,21.87,14.43,-17.25,-158.70,-395.85,25.1
2026/04/22 21:55:29.22,IMU,191.89,0.49,-439.94,-33.82,11.02,-33.08,-15.90,-156.60,-396.75,24.9
2026/04/22 21:55:29.32,IMU,85.94,-21.48,-563.96,40.95,-52.72,-54.49,-15.75,-155.55,-397.65,25.2
2026/04/22 21:55:29.42,IMU,-88.87,-412.11,-1364.26,-10.39,-50.87,-12.80,-10.80,-159.90,-397.50,25.2
2026/04/22 21:55:29.52,IMU,238.77,-483.89,-1174.32,12.27,-26.55,42.97,-9.90,-158.70,-396.60,25.4
2026/04/22 21:55:29.62,IMU,134.28,-472.17,-1085.45,-48.67,28.82,40.18,-8.25,-157.35,-397.20,25.0
2026/04/22 21:55:29.72,IMU,79.10,-149.90,-710.45,-59.23,10.86,-8.60,-9.45,-155.55,-397.35,25.0
2026/04/22 21:55:29.82,IMU,316.41,-2.93,-502.44,-34.44,18.14,1.07,-12.00,-150.60,-395.55,25.2
2026/04/22 21:55:29.92,IMU,118.16,-153.32,-1048.83,-11.87,3.85,-50.00,-10.80,-148.95,-394.20,25.3
2026/04/22 21:55:30.02,IMU,106.45,-234.38,-1396.48,2.64,-30.47,-20.48,-10.35,-149.70,-394.95,25.2
2026/04/22 21:55:30.12,IMU,-71.29,-334.96,-1434.08,17.21,-24.08,-48.50,-7.50,-149.40,-395.40,25.2
2026/04/22 21:55:30.22,IMU,434.57,-111.33,-924.80,12.60,14.71,20.50,-8.25,-149.40,-396.00,24.9
2026/04/22 21:55:30.32,IMU,212.89,56.15,-789.06,-26.76,-18.05,-29.14,-10.20,-149.10,-396.30,25.0
2026/04/22 21:55:30.42,IMU,3.91,87.89,-779.79,0.29,-14.46,-59.10,-7.35,-148.35,-395.10,25.2
2026/04/22 21:55:30.52,IMU,-124.51,-37.11,-1213.38,10.70,-35.38,-13.34,-3.60,-150.60,-395.10,25.0
2026/04/22 21:55:30.62,IMU,217.29,-415.04,-1423.83,52.44,-16.57,-4.33,-3.30,-152.25,-393.30,25.2
2026/04/22 21:55:30.72,IMU,246.58,-82.52,-998.05,-6.58,-9.88,-12.27,-4.20,-153.15,-395.70,25.2
2026/04/22 21:55:30.82,IMU,-20.02,-33.20,-767.58,-53.89,40.50,-45.07,-2.25,-151.95,-394.20,25.2
2026/04/22 21:55:30.92,IMU,-36.62,-56.15,-746.58,-43.79,2.48,-44.46,-3.90,-149.10,-393.30,25.2
2026/04/22 21:55:31.04,IMU,146.00,-3.91,-910.64,12.79,16.82,-45.25,-3.30,-149.85,-391.50,24.9
2026/04/22 21:55:31.14,IMU,73.24,-24.90,-1338.38,9.01,21.60,-51.38,-2.85,-152.25,-391.95,25.2
2026/04/22 21:55:31.24,IMU,135.25,-176.76,-1483.89,65.50,-10.59,-90.71,-4.35,-155.25,-393.00,25.0
2026/04/22 21:55:31.34,IMU,88.38,97.66,-670.90,92.37,-42.47,53.50,-1.20,-156.90,-393.60,24.9
2026/04/22 21:55:31.44,IMU,-175.29,-25.39,-890.63,-63.47,-0.92,27.80,0.00,-160.20,-394.50,25.2
2026/04/22 21:55:31.54,IMU,-163.57,7.81,-709.96,-17.34,-73.24,-5.48,2.25,-156.90,-393.90,25.1
2026/04/22 21:55:31.64,IMU,-45.41,-155.27,-1280.76,6.03,14.85,32.34,4.65,-157.50,-393.00,25.2
2026/04/22 21:55:31.74,IMU,126.95,-242.19,-1238.28,-11.79,-33.97,22.74,2.70,-156.60,-394.20,25.2
2026/04/22 21:55:31.84,IMU,-34.18,-61.04,-632.81,-20.92,46.52,75.66,-2.25,-152.70,-397.20,25.3
2026/04/22 21:55:31.94,IMU,-27.34,-62.01,-1294.92,6.21,-0.25,-23.33,-7.05,-154.20,-399.60,25.3
2026/04/22 21:55:32.04,IMU,-23.93,92.29,-713.38,-65.86,19.59,45.79,-13.65,-147.45,-397.50,25.1
2026/04/22 21:55:32.14,IMU,132.81,104.49,-987.30,-67.62,33.97,-51.32,-22.35,-135.45,-400.50,25.1
2026/04/22 21:55:32.24,IMU,25.39,132.81,-1042.48,38.58,-44.90,-93.79,-20.70,-134.85,-403.95,25.2
2026/04/22 21:55:32.34,IMU,106.45,-112.79,-1464.84,-8.84,21.27,-29.97,-16.50,-138.90,-399.90,25.2
2026/04/22 21:55:32.44,IMU,253.42,-10.74,-959.96,-77.00,49.70,-101.50,-16.05,-132.75,-393.00,25.2
2026/04/22 21:55:32.54,IMU,-237.30,409.67,-567.38,59.27,48.68,-100.05,-11.70,-132.00,-393.30,25.2
2026/04/22 21:55:32.64,IMU,52.25,273.93,-893.55,-52.82,59.81,-23.08,-11.85,-132.30,-392.85,25.1
2026/04/22 21:55:32.74,IMU,57.13,331.54,-1234.86,17.82,4.27,-10.60,-12.45,-130.95,-394.05,25.3
2026/04/22 21:55:32.84,IMU,54.20,353.52,-1191.41,34.83,17.15,-0.42,-13.50,-127.50,-395.85,25.1
2026/04/22 21:55:32.94,IMU,-63.48,279.79,-974.12,-28.66,17.20,10.74,-13.20,-128.70,-397.35,25.2
2026/04/22 21:55:33.04,IMU,-5.86,129.88,-1089.84,23.19,3.66,-8.85,-13.05,-135.30,-393.90,25.3
2026/04/22 21:55:33.14,IMU,-22.95,225.10,-705.08,-19.11,1.15,2.66,-10.65,-136.95,-389.70,25.2
2026/04/22 21:55:33.24,IMU,-105.47,250.49,-886.23,-12.79,11.35,0.61,-5.85,-136.65,-395.85,25.2
2026/04/22 21:55:33.34,IMU,127.44,235.84,-1193.85,29.63,31.63,-13.66,-3.90,-139.65,-396.60,25.1
2026/04/22 21:55:33.44,IMU,131.84,196.78,-1181.64,47.53,31.86,-25.33,-3.45,-142.50,-394.65,25.2
2026/04/22 21:55:33.54,IMU,203.61,162.60,-1146.00,4.28,28.48,-4.11,-6.90,-143.40,-393.75,24.9
2026/04/22 21:55:33.64,IMU,87.40,206.54,-734.86,-15.27,-3.46,-15.26,-5.70,-144.45,-393.15,25.4
2026/04/22 21:55:33.74,IMU,20.51,236.33,-771.00,-0.60,-1.92,-29.08,-1.20,-144.75,-392.85,25.2
2026/04/22 21:55:33.84,IMU,87.40,263.18,-950.20,17.25,-0.18,-14.92,-0.60,-146.10,-393.00,24.9
2026/04/22 21:55:33.94,IMU,-28.32,256.35,-1135.25,-21.35,-9.61,-1.99,-0.45,-147.75,-393.15,25.3
2026/04/22 21:55:34.04,IMU,-170.90,165.04,-1168.95,4.60,-31.47,-17.36,2.25,-150.45,-392.85,25.3
2026/04/22 21:55:34.14,IMU,12.21,187.01,-994.14,25.63,20.25,-4.56,1.95,-149.40,-391.65,25.3
2026/04/22 21:55:34.24,IMU,-22.46,168.95,-810.06,-47.76,15.18,-6.18,0.45,-150.45,-388.80,25.2
2026/04/22 21:55:34.34,IMU,67.87,272.95,-835.45,-17.01,15.24,12.05,0.60,-148.35,-389.40,25.1
2026/04/22 21:55:34.44,IMU,187.99,240.23,-1112.30,7.50,34.47,-33.43,-0.15,-147.00,-390.60,24.9
2026/04/22 21:55:34.55,IMU,255.86,335.45,-998.54,2.66,8.69,-49.05,0.90,-146.25,-389.85,25.2
2026/04/22 21:55:34.65,IMU,206.05,217.77,-1120.61,11.00,-6.18,-14.94,0.00,-149.55,-390.45,24.9
2026/04/22 21:55:34.75,IMU,35.64,217.29,-758.79,1.60,-16.53,-41.66,1.35,-149.85,-391.50,25.2
2026/04/22 21:55:34.85,IMU,79.59,205.57,-710.94,17.85,1.02,-48.11,0.60,-153.00,-390.45,24.9
2026/04/22 21:55:34.95,IMU,-30.27,237.30,-936.52,-2.64,-16.72,-43.07,2.70,-155.10,-390.30,25.2
2026/04/22 21:55:35.05,IMU,-100.59,237.30,-1078.13,-2.45,-31.34,-28.44,2.85,-152.55,-390.75,25.2
2026/04/22 21:55:35.15,IMU,-69.34,187.01,-1240.72,0.79,-2.76,-18.45,1.20,-155.40,-385.20,25.2
2026/04/22 21:55:35.25,IMU,-38.09,237.79,-1002.44,37.07,15.12,-4.68,3.75,-151.20,-391.35,25.2
2026/04/22 21:55:35.35,IMU,11.23,214.84,-1014.65,-29.21,11.10,29.68,3.30,-153.30,-388.65,25.3
2026/04/22 21:55:35.45,IMU,98.14,275.39,-815.43,-19.50,12.83,-5.91,3.30,-150.30,-389.40,25.2
2026/04/22 21:55:35.55,IMU,184.57,284.18,-1109.38,2.16,32.13,-57.98,5.40,-153.00,-390.15,25.2
2026/04/22 21:55:35.65,IMU,180.18,277.34,-1072.75,-16.83,12.24,-113.35,4.50,-157.35,-390.30,25.3
2026/04/22 21:55:35.75,IMU,438.48,250.49,-1109.38,74.21,39.94,-175.02,3.75,-159.90,-391.05,25.3
2026/04/22 21:55:35.85,IMU,-25.88,92.29,-962.40,32.03,-0.76,-204.18,1.20,-167.55,-389.55,25.2
2026/04/22 21:55:35.95,IMU,-187.99,-54.69,-808.59,-8.98,16.07,-124.07,-0.45,-171.75,-388.80,25.3
2026/04/22 21:55:36.05,IMU,-234.86,2.93,-889.16,3.40,-10.57,-26.21,-2.25,-172.05,-390.30,25.3
2026/04/22 21:55:36.16,IMU,-431.64,130.86,-980.47,-54.38,-7.62,8.39,-4.65,-173.40,-385.80,25.3
2026/04/22 21:55:36.26,IMU,-226.07,281.25,-920.41,-7.07,-16.34,3.94,-3.00,-167.55,-392.10,25.2
2026/04/22 21:55:36.36,IMU,-157.23,243.16,-1002.93,65.56,-37.14,-23.52,-0.45,-168.30,-391.35,25.3
2026/04/22 21:55:36.46,IMU,-145.02,103.03,-1068.36,49.13,4.92,-25.63,0.00,-174.90,-392.25,25.2
2026/04/22 21:55:36.56,IMU,-268.55,38.09,-998.54,-14.81,23.42,19.20,0.90,-177.75,-390.60,25.4
2026/04/22 21:55:36.66,IMU,-42.48,-53.71,-904.79,-2.09,18.44,20.37,0.30,-176.10,-390.15,25.2
2026/04/22 21:55:36.76,IMU,-40.53,57.13,-949.22,-11.98,10.38,29.63,-1.95,-173.70,-391.65,25.4
2026/04/22 21:55:36.86,IMU,-166.02,239.75,-1126.46,-3.37,-1.56,-9.75,-3.30,-173.40,-392.25,25.3
2026/04/22 21:55:36.96,IMU,-333.01,147.46,-1032.71,70.59,-9.59,-34.32,-2.10,-174.90,-391.95,25.3
2026/04/22 21:55:37.06,IMU,-195.80,-7.32,-1035.16,1.21,37.23,63.02,-4.65,-175.65,-391.50,25.4
2026/04/22 21:55:37.16,IMU,-119.14,41.99,-939.94,-96.51,2.11,127.03,-3.75,-174.00,-392.10,25.2
2026/04/22 21:55:37.26,IMU,-107.91,264.16,-660.64,-49.44,2.69,83.82,-3.45,-164.85,-393.15,25.2
2026/04/22 21:55:37.36,IMU,-131.84,338.38,-900.88,4.69,-5.83,46.95,-3.90,-162.75,-394.05,25.1
2026/04/22 21:55:37.46,IMU,7.81,269.53,-1090.33,17.15,4.05,69.51,-3.75,-159.90,-392.85,25.2
2026/04/22 21:55:37.56,IMU,225.59,152.34,-1261.23,63.34,-58.57,28.17,-4.65,-159.45,-393.00,25.3
2026/04/22 21:55:37.66,IMU,-32.23,210.94,-1019.04,-23.02,0.69,81.15,-6.30,-156.90,-396.45,25.3
2026/04/22 21:55:37.76,IMU,2.93,108.89,-868.65,47.86,-11.53,33.84,-10.35,-150.90,-397.80,25.2
2026/04/22 21:55:37.86,IMU,81.05,132.32,-835.45,2.66,16.59,75.44,-17.10,-141.75,-403.65,25.0
2026/04/22 21:55:37.97,IMU,53.71,146.00,-997.56,-26.71,18.18,-2.12,-23.25,-133.05,-401.10,25.3
2026/04/22 21:55:38.07,IMU,168.95,250.49,-962.89,-24.32,13.24,33.58,-27.45,-123.75,-404.85,25.2
2026/04/22 21:55:38.17,IMU,371.09,217.77,-1093.75,40.84,7.04,7.21,-30.30,-112.05,-408.75,24.9
2026/04/22 21:55:38.27,IMU,142.09,171.88,-1036.62,54.30,62.29,-21.16,-33.90,-110.25,-408.00,25.4
2026/04/22 21:55:38.37,IMU,-36.62,183.59,-950.68,29.10,-0.80,17.27,-43.50,-107.25,-416.70,25.3
2026/04/22 21:55:38.47,IMU,77.15,247.56,-756.35,-6.36,-16.52,-12.39,-53.40,-96.60,-419.55,25.0
2026/04/22 21:55:38.57,IMU,42.97,106.93,-1150.39,4.65,10.29,-17.06,-49.95,-104.40,-418.65,25.2
2026/04/22 21:55:38.67,IMU,28.81,80.57,-1209.96,2.95,-24.52,53.88,-48.00,-102.60,-419.10,25.2
2026/04/22 21:55:38.77,IMU,-54.20,76.66,-950.20,-27.79,-4.65,8.74,-49.05,-98.10,-419.55,25.2
2026/04/22 21:55:38.87,IMU,17.58,-43.46,-1203.13,38.22,-27.17,-8.12,-48.30,-96.90,-418.05,25.3
2026/04/22 21:55:38.97,IMU,-19.04,84.96,-809.57,-11.89,-37.74,33.15,-50.40,-96.30,-417.60,25.2
2026/04/22 21:55:39.07,IMU,84.47,120.12,-935.55,-30.67,15.65,10.57,-47.40,-94.80,-416.40,25.2
2026/04/22 21:55:39.17,IMU,149.90,49.80,-1011.72,6.18,-17.05,-36.87,-47.40,-91.50,-418.20,25.4
2026/04/22 21:55:39.27,IMU,115.72,0.00,-1040.53,40.08,23.27,-56.05,-49.20,-94.50,-416.85,25.2
2026/04/22 21:55:39.37,IMU,43.46,-60.55,-1163.09,24.08,3.99,-32.01,-49.35,-99.90,-418.05,25.3
2026/04/22 21:55:39.47,IMU,80.08,59.08,-747.56,-23.25,7.15,-32.13,-51.75,-100.95,-419.70,25.4
2026/04/22 21:55:39.57,IMU,88.38,90.33,-750.00,-9.18,-4.58,-50.51,-51.75,-101.25,-419.40,25.2
2026/04/22 21:55:39.67,IMU,96.19,87.40,-992.19,5.16,-0.54,-41.66,-51.75,-103.20,-419.40,25.4
2026/04/22 21:55:39.77,IMU,2.93,62.50,-1142.09,4.94,-7.50,-17.47,-53.70,-105.15,-419.70,25.2
2026/04/22 21:55:39.87,IMU,-77.64,-39.55,-1200.20,-10.15,-34.55,-44.29,-53.70,-106.20,-419.40,25.2
2026/04/22 21:55:39.97,IMU,72.75,-92.77,-1090.82,8.12,23.53,-42.13,-53.40,-107.55,-417.75,25.2
2026/04/22 21:55:40.07,IMU,51.27,0.49,-985.35,-7.31,-2.39,-4.06,-55.65,-106.50,-417.30,25.4
2026/04/22 21:55:40.17,IMU,85.94,38.57,-777.34,-30.85,11.47,-5.27,-54.90,-106.05,-419.55,25.2
2026/04/22 21:55:40.27,IMU,36.13,-21.97,-1034.18,6.06,-5.88,-53.05,-57.45,-106.50,-419.85,25.3
2026/04/22 21:55:40.37,IMU,187.01,-72.27,-1059.57,32.66,13.89,-53.53,-58.80,-108.45,-419.70,25.1
2026/04/22 21:55:40.47,IMU,137.70,-89.84,-1280.27,1.79,-28.82,-11.50,-62.25,-109.50,-416.70,25.3
2026/04/22 21:55:40.57,IMU,43.95,-33.20,-753.42,-20.88,-35.29,-43.12,-62.10,-110.10,-416.10,25.3
2026/04/22 21:55:40.67,IMU,4.88,-5.86,-705.08,-12.88,-11.52,-54.87,-64.50,-110.55,-414.15,25.2
2026/04/22 21:55:40.77,IMU,-99.61,-34.18,-851.56,4.65,-0.65,-56.13,-65.85,-110.10,-415.80,25.1
2026/04/22 21:55:40.87,IMU,-116.21,-78.12,-1042.97,19.36,-28.57,-19.79,-70.20,-110.10,-413.55,25.3
2026/04/22 21:55:40.97,IMU,-73.73,-228.03,-1169.92,-2.62,-1.27,-33.15,-74.55,-108.90,-411.75,25.4
2026/04/22 21:55:41.08,IMU,-75.20,-291.99,-959.47,-6.64,13.61,-63.79,-79.05,-106.20,-411.75,25.0
2026/04/22 21:55:41.18,IMU,-5.37,-230.47,-936.52,-16.84,38.24,-54.51,-82.20,-106.05,-412.65,25.3
2026/04/22 21:55:41.28,IMU,118.16,-246.58,-1024.90,-2.23,46.68,-114.79,-88.35,-103.35,-412.65,25.3
2026/04/22 21:55:41.38,IMU,-76.17,-132.81,-807.13,31.18,-25.04,-130.50,-93.45,-100.95,-410.70,25.1
2026/04/22 21:55:41.48,IMU,-73.73,40.53,-875.00,19.33,45.33,-83.68,-99.45,-97.35,-411.60,25.2
2026/04/22 21:55:41.58,IMU,43.46,-136.23,-1220.21,35.02,-45.82,-28.40,-100.20,-97.35,-410.85,25.3
2026/04/22 21:55:41.68,IMU,184.57,-215.33,-1145.51,-41.92,14.63,-19.45,-100.80,-96.75,-411.45,25.2
2026/04/22 21:55:41.78,IMU,251.46,-43.95,-957.52,-4.19,-14.39,-12.73,-101.70,-95.40,-412.95,25.3
2026/04/22 21:55:41.88,IMU,296.88,-59.08,-1055.18,-19.76,14.40,-29.68,-102.15,-95.25,-412.05,25.3
2026/04/22 21:55:41.98,IMU,-5.37,-30.27,-988.28,19.50,-136.11,-27.99,-99.30,-93.30,-417.15,25.3
2026/04/22 21:55:42.08,IMU,-70.31,-19.53,-1074.71,-12.50,20.40,19.52,-99.30,-91.05,-416.10,25.2
2026/04/22 21:55:42.18,IMU,-169.92,-91.31,-1267.09,25.16,4.72,28.40,-98.40,-91.95,-416.70,25.3
2026/04/22 21:55:42.28,IMU,-188.48,12.21,-1109.38,15.64,28.63,45.04,-99.90,-98.10,-413.70,25.2
2026/04/22 21:55:42.38,IMU,-311.04,-23.93,-1031.74,41.19,-70.08,12.41,-96.30,-96.75,-415.35,25.3
2026/04/22 21:55:42.48,IMU,-466.31,-91.31,-993.65,-2.66,7.16,21.01,-93.75,-100.50,-416.40,25.3
2026/04/22 21:55:42.58,IMU,-333.50,-152.34,-870.12,-18.08,-11.66,40.69,-92.40,-99.90,-415.95,25.3
2026/04/22 21:55:42.68,IMU,-338.87,-164.06,-845.70,5.63,-25.56,49.95,-89.55,-100.35,-414.75,25.2
2026/04/22 21:55:42.78,IMU,-232.42,-187.01,-896.97,17.80,-9.05,70.92,-85.65,-102.45,-416.10,25.3
2026/04/22 21:55:42.88,IMU,-188.48,-325.20,-1045.90,18.21,33.00,39.64,-85.50,-107.55,-409.05,25.3
2026/04/22 21:55:42.98,IMU,-93.75,-104.49,-997.56,-3.94,18.37,33.76,-84.00,-105.30,-414.15,25.3
2026/04/22 21:55:43.08,IMU,-111.33,4.39,-1016.11,-5.18,-12.32,-10.34,-84.00,-106.80,-412.95,25.2
2026/04/22 21:55:43.18,IMU,-93.75,41.99,-1034.67,5.95,23.02,-38.87,-84.60,-105.90,-415.05,25.4
2026/04/22 21:55:43.29,IMU,-182.13,24.90,-945.80,53.42,-20.66,-55.41,-92.40,-106.05,-410.85,25.2
2026/04/22 21:55:43.39,IMU,-219.73,-156.25,-1187.99,3.70,36.79,-20.15,-87.90,-105.90,-413.85,25.4
2026/04/22 21:55:43.49,IMU,-55.66,-131.84,-1102.54,-75.08,137.97,-39.61,-94.35,-101.10,-412.95,25.2
2026/04/22 21:55:43.59,IMU,-99.12,100.59,-570.31,5.14,-102.38,-0.51,-97.05,-98.70,-415.05,24.9
2026/04/22 21:55:43.69,IMU,-158.20,-124.51,-1138.18,40.78,52.15,-29.44,-95.55,-100.95,-413.25,25.2
2026/04/22 21:55:43.79,IMU,20.51,-149.41,-996.09,-5.69,42.66,-14.50,-100.05,-97.50,-411.45,25.2
2026/04/22 21:55:43.89,IMU,-6.84,-145.51,-903.81,7.92,1.12,25.16,-102.00,-99.15,-409.05,25.4
2026/04/22 21:55:43.99,IMU,105.47,-164.06,-1116.21,10.61,24.77,7.45,-99.15,-98.40,-408.30,25.2
2026/04/22 21:55:44.09,IMU,114.75,-198.73,-1219.24,-6.89,-5.47,-6.15,-99.45,-100.35,-408.30,25.2
2026/04/22 21:55:44.19,IMU,75.68,-78.12,-970.70,-12.34,-18.40,-7.13,-99.60,-98.70,-409.20,25.3
2026/04/22 21:55:44.29,IMU,-95.70,-19.04,-925.29,-5.49,-31.41,14.61,-100.95,-99.15,-411.15,25.3
2026/04/22 21:55:44.39,IMU,-138.67,-60.06,-1038.09,-7.65,5.42,32.85,-98.10,-98.70,-411.00,25.2
2026/04/22 21:55:44.49,IMU,-60.55,-54.20,-923.83,-7.62,-7.66,55.26,-95.25,-100.20,-410.25,25.4
2026/04/22 21:55:44.59,IMU,-168.46,30.27,-1002.93,12.37,-9.18,62.11,-90.45,-102.00,-411.75,25.2
2026/04/22 21:55:44.69,IMU,-184.57,-102.05,-1074.71,7.34,14.79,68.98,-88.35,-103.35,-410.55,25.3
2026/04/22 21:55:44.79,IMU,-157.23,-293.95,-1237.79,42.49,24.50,21.63,-86.10,-103.65,-408.90,25.0
2026/04/22 21:55:44.91,IMU,-49.32,-268.07,-990.23,-10.14,13.35,94.58,-86.10,-103.20,-405.60,25.1
2026/04/22 21:55:45.01,IMU,-48.83,-178.71,-824.22,5.85,-1.56,57.11,-83.25,-101.85,-406.20,25.4
2026/04/22 21:55:45.11,IMU,-171.88,-149.90,-928.71,-10.95,16.14,60.49,-79.95,-101.85,-404.40,25.3
2026/04/22 21:55:45.21,IMU,-131.35,-62.50,-958.50,2.40,19.27,48.83,-77.55,-102.00,-403.05,25.4
2026/04/22 21:55:45.31,IMU,-28.81,-26.86,-969.73,-9.01,-2.52,53.81,-75.15,-101.85,-400.80,25.3
2026/04/22 21:55:45.41,IMU,-66.41,-97.17,-1111.33,-23.08,10.88,47.07,-71.70,-100.20,-399.90,25.3
2026/04/22 21:55:45.51,IMU,-145.51,-195.31,-1261.72,8.85,-22.19,19.95,-68.55,-98.85,-400.35,25.4
2026/04/22 21:55:45.61,IMU,21.00,-154.30,-988.77,23.58,-20.16,16.70,-64.50,-98.10,-397.50,25.4
2026/04/22 21:55:45.71,IMU,-84.96,-133.30,-897.95,-14.27,16.80,-2.49,-62.25,-94.35,-393.90,25.2
2026/04/22 21:55:45.81,IMU,-30.27,-257.81,-881.84,-20.50,11.52,-34.34,-63.90,-89.10,-395.10,25.3
2026/04/22 21:55:45.91,IMU,96.19,-320.80,-1008.79,-27.24,2.83,-57.48,-70.20,-85.35,-399.45,25.2
2026/04/22 21:55:46.01,IMU,241.70,-403.32,-1246.09,2.61,-6.82,-111.56,-75.15,-86.25,-401.85,25.3
2026/04/22 21:55:46.11,IMU,-28.81,-131.84,-1063.48,-19.41,-7.02,-48.48,-79.35,-89.10,-404.85,25.2
2026/04/22 21:55:46.21,IMU,-127.93,-52.73,-673.83,5.69,14.85,-68.95,-82.20,-87.45,-406.20,25.3
2026/04/22 21:55:46.31,IMU,-90.33,-0.49,-948.73,-22.18,7.08,-25.91,-85.05,-86.70,-407.25,25.2
2026/04/22 21:55:46.41,IMU,-164.55,104.49,-1015.14,-7.98,8.34,0.15,-87.75,-87.00,-409.35,25.4
2026/04/22 21:55:46.51,IMU,-293.46,162.11,-1044.43,0.49,-32.64,24.34,-87.45,-84.60,-412.50,25.0
2026/04/22 21:55:46.61,IMU,-146.48,3.91,-1229.49,2.06,17.06,-14.58,-87.30,-86.70,-413.70,25.3
2026/04/22 21:55:46.71,IMU,-83.50,-108.89,-1156.74,1.33,-0.29,-5.18,-87.75,-88.65,-413.40,25.2
2026/04/22 21:55:46.81,IMU,8.79,20.02,-770.51,-48.66,9.65,50.57,-87.15,-89.10,-413.55,25.2
2026/04/22 21:55:46.91,IMU,8.30,19.53,-818.85,-11.95,-8.81,33.32,-85.35,-86.85,-416.40,24.9
2026/04/22 21:55:47.01,IMU,-82.03,-46.88,-989.75,27.95,-26.13,-17.08,-83.25,-87.45,-418.05,25.2
2026/04/22 21:55:47.11,IMU,11.23,-3.42,-1046.39,19.51,11.44,4.48,-84.30,-90.45,-416.70,25.3
2026/04/22 21:55:47.21,IMU,-104.49,-126.95,-1202.15,9.56,-1.21,4.68,-84.75,-91.20,-414.15,25.2
2026/04/22 21:55:47.31,IMU,-122.07,-49.32,-876.46,10.36,-12.29,-22.00,-83.85,-92.25,-414.30,25.5
2026/04/22 21:55:47.41,IMU,-115.23,31.25,-666.99,-9.67,-1.42,9.95,-84.00,-91.95,-413.70,25.0
2026/04/22 21:55:47.51,IMU,-143.55,21.48,-931.15,-0.43,31.60,15.27,-84.30,-91.20,-412.95,25.3
2026/04/22 21:55:47.61,IMU,-223.14,-70.80,-1349.12,8.64,-20.69,47.39,-84.00,-90.90,-414.15,25.3
2026/04/22 21:55:47.71,IMU,-160.16,-175.78,-1225.59,9.15,1.18,16.03,-81.75,-90.90,-413.40,25.0
2026/04/22 21:55:47.81,IMU,-22.46,-160.64,-1155.27,0.13,20.82,27.75,-78.45,-91.95,-410.85,25.4
2026/04/22 21:55:47.91,IMU,-20.02,-75.20,-950.20,-15.75,-26.17,19.42,-78.90,-91.95,-411.90,25.3
2026/04/22 21:55:48.01,IMU,5.86,-90.82,-793.46,-35.05,28.81,-2.64,-79.35,-90.30,-408.15,25.3
2026/04/22 21:55:48.11,IMU,-44.43,-81.05,-716.31,-20.37,-5.06,-14.07,-77.70,-88.65,-411.15,25.3
2026/04/22 21:55:48.21,IMU,-166.02,-5.86,-961.43,17.35,22.63,-50.10,-79.35,-88.05,-410.70,25.2
2026/04/22 21:55:48.32,IMU,-332.03,-229.00,-1711.91,51.59,16.56,-90.31,-83.25,-89.40,-409.80,24.9
2026/04/22 21:55:48.42,IMU,87.89,-190.43,-1167.97,24.91,-39.92,-14.78,-84.75,-90.45,-406.95,25.4
2026/04/22 21:55:48.52,IMU,-77.64,-24.41,-790.53,-34.82,4.12,-0.70,-87.45,-89.85,-407.40,25.2
2026/04/22 21:55:48.62,IMU,-100.59,-101.56,-805.18,-5.60,-12.15,-27.53,-87.15,-88.80,-406.35,25.2
2026/04/22 21:55:48.72,IMU,-205.08,-166.50,-1016.60,-18.79,-32.25,24.58,-88.05,-90.45,-406.20,25.3
2026/04/22 21:55:48.82,IMU,-181.15,-84.96,-847.17,-31.61,-4.25,29.14,-88.20,-89.10,-407.85,25.3
2026/04/22 21:55:48.92,IMU,-176.76,-17.58,-1039.55,-21.95,-16.83,6.76,-87.75,-89.70,-409.35,25.3
2026/04/22 21:55:49.02,IMU,-218.26,-101.56,-1124.51,27.31,-0.49,-40.27,-86.25,-92.70,-408.00,25.4
2026/04/22 21:55:49.12,IMU,-131.84,-107.91,-946.78,-15.34,10.26,20.31,-87.30,-94.35,-409.35,25.4
2026/04/22 21:55:49.22,IMU,-122.56,-81.05,-794.92,4.10,19.60,-0.30,-86.40,-95.25,-409.20,25.4
2026/04/22 21:55:49.32,IMU,-208.50,-54.20,-975.59,13.27,8.73,-15.91,-87.75,-97.35,-408.75,25.2
2026/04/22 21:55:49.42,IMU,-142.58,-66.89,-1054.20,1.48,16.36,-37.50,-92.85,-98.40,-403.65,25.4
2026/04/22 21:55:49.52,IMU,-115.72,-19.53,-886.23,-8.39,-10.90,-31.06,-90.30,-95.85,-406.95,25.2
2026/04/22 21:55:49.62,IMU,-316.41,-205.08,-1312.50,31.47,-7.36,-58.56,-92.85,-98.40,-406.20,25.3
2026/04/22 21:55:49.72,IMU,88.38,-184.57,-952.15,-21.24,26.25,-1.23,-95.25,-94.05,-404.85,25.3
2026/04/22 21:55:49.82,IMU,-9.28,-198.24,-954.10,-3.67,-17.53,-8.37,-95.10,-93.90,-405.75,25.4
2026/04/22 21:55:49.92,IMU,9.77,-132.81,-950.20,-5.24,6.45,-16.98,-96.75,-95.55,-406.05,25.2
2026/04/22 21:55:50.03,IMU,-9.28,-31.74,-927.25,7.08,-10.56,-11.31,-97.50,-93.75,-406.05,25.4
2026/04/22 21:55:50.13,IMU,-111.33,-40.04,-942.38,21.54,-10.74,-10.21,-96.75,-93.30,-403.80,25.4
2026/04/22 21:55:50.23,IMU,-214.36,-174.80,-1102.05,21.84,-33.72,27.77,-97.05,-94.05,-404.85,25.4
2026/04/22 21:55:50.33,IMU,-262.70,-173.83,-1041.02,-2.31,-13.61,26.12,-94.20,-94.50,-404.55,25.4
2026/04/22 21:55:50.43,IMU,-145.02,-140.14,-1033.69,0.20,15.24,3.71,-95.85,-95.85,-399.30,25.3
2026/04/22 21:55:50.53,IMU,-96.68,-186.52,-1000.98,-6.38,1.18,13.23,-92.85,-91.65,-403.95,25.3
2026/04/22 21:55:50.63,IMU,-118.16,-120.12,-957.52,-7.92,16.80,-3.92,-92.40,-91.20,-403.20,25.4
2026/04/22 21:55:50.73,IMU,-160.64,-44.43,-959.47,19.21,-6.26,-18.92,-93.60,-89.70,-402.60,25.2
2026/04/22 21:55:50.83,IMU,-145.02,-125.98,-1076.17,32.53,-41.89,-16.52,-96.15,-86.70,-401.85,25.3
2026/04/22 21:55:50.93,IMU,-193.36,-182.62,-1097.17,-12.99,-16.81,-37.13,-100.80,-87.30,-403.05,25.4
2026/04/22 21:55:51.03,IMU,-206.05,-160.16,-986.33,-21.81,8.82,-43.52,-104.85,-87.60,-403.05,25.3
2026/04/22 21:55:51.13,IMU,-211.43,-180.66,-1086.91,2.43,-20.01,-51.29,-109.65,-85.05,-402.30,25.3
2026/04/22 21:55:51.23,IMU,-73.73,-138.18,-829.59,-17.51,-5.32,-5.54,-108.45,-84.60,-404.55,25.3
2026/04/22 21:55:51.33,IMU,-41.99,-241.70,-963.87,-4.44,21.15,-39.47,-108.30,-85.20,-405.15,25.2
2026/04/22 21:55:51.44,IMU,34.18,-62.01,-854.49,-3.15,15.79,-35.79,-112.35,-84.45,-401.10,25.4
2026/04/22 21:55:51.54,IMU,-67.38,-30.76,-964.84,10.85,-32.11,-35.35,-109.20,-80.85,-406.65,25.3
2026/04/22 21:55:51.64,IMU,-180.18,-117.19,-1092.77,-10.42,12.84,-27.51,-108.60,-79.80,-408.30,25.3
2026/04/22 21:55:51.74,IMU,-85.94,-132.32,-1167.97,6.80,-28.09,1.84,-107.55,-79.05,-408.00,25.3
2026/04/22 21:55:51.84,IMU,-257.81,-149.90,-1196.29,-19.67,-14.82,7.85,-108.60,-79.05,-409.35,25.3
2026/04/22 21:55:51.94,IMU,-107.91,-246.09,-1220.70,-21.59,18.04,-36.25,-107.70,-76.95,-412.50,25.7
2026/04/22 21:55:52.04,IMU,-152.83,-263.67,-926.27,-32.44,-28.43,-28.72,-107.70,-73.95,-411.75,25.3
2026/04/22 21:55:52.14,IMU,-159.18,-143.07,-732.91,-31.11,21.02,-17.42,-107.25,-72.30,-415.20,25.4
2026/04/22 21:55:52.24,IMU,-115.23,6.84,-939.94,-23.42,32.42,-11.24,-108.60,-68.10,-414.45,25.2
2026/04/22 21:55:52.34,IMU,-172.36,105.47,-1009.77,-6.56,10.56,-46.85,-111.60,-65.85,-412.35,25.3
2026/04/22 21:55:52.44,IMU,-182.13,43.46,-1141.11,68.78,-38.82,-60.75,-108.60,-65.40,-415.50,25.3
2026/04/22 21:55:52.54,IMU,-261.72,-43.46,-1126.46,-20.23,29.24,16.56,-109.65,-64.80,-415.35,25.4
2026/04/22 21:55:52.64,IMU,-203.61,-111.33,-842.77,-4.05,-11.25,1.93,-108.90,-65.55,-415.05,25.4
2026/04/22 21:55:52.74,IMU,-248.54,-131.35,-810.55,-2.21,-12.52,7.07,-107.25,-65.10,-417.30,25.0
2026/04/22 21:55:52.84,IMU,-222.66,-85.94,-863.77,21.21,5.16,13.70,-107.55,-65.10,-417.00,25.3
2026/04/22 21:55:52.94,IMU,-130.37,-68.85,-1153.81,15.01,4.97,54.07,-106.95,-67.95,-417.90,25.3
2026/04/22 21:55:53.04,IMU,-70.31,-47.85,-1076.17,-5.09,12.59,49.69,-106.05,-70.05,-417.75,25.2
2026/04/22 21:55:53.14,IMU,-150.88,68.36,-844.24,-17.15,11.53,33.42,-105.60,-70.20,-417.60,25.3
2026/04/22 21:55:53.24,IMU,-112.79,-215.82,-1344.24,34.07,0.64,-46.18,-105.30,-73.05,-418.80,25.2
2026/04/22 21:55:53.34,IMU,-120.12,-194.34,-1064.45,-2.51,-31.21,27.11,-104.10,-71.25,-420.00,25.2
2026/04/22 21:55:53.44,IMU,-212.89,-232.91,-1033.69,-14.70,-1.73,22.77,-105.00,-70.80,-420.30,25.3
2026/04/22 21:55:53.54,IMU,-107.42,-72.27,-775.39,-4.75,8.53,11.17,-102.75,-71.10,-420.30,25.4
2026/04/22 21:55:53.64,IMU,-96.68,-71.29,-834.47,3.51,19.06,-10.08,-104.10,-70.20,-418.95,25.3
2026/04/22 21:55:53.74,IMU,-153.81,-181.15,-1043.95,7.82,22.34,-53.56,-105.30,-69.15,-419.10,25.3
2026/04/22 21:55:53.84,IMU,-144.04,-162.60,-1083.98,51.81,-35.15,-61.69,-105.60,-67.50,-418.65,25.5
2026/04/22 21:55:53.94,IMU,-181.64,-147.46,-1220.21,-21.18,21.30,10.34,-106.80,-68.85,-418.05,25.3
2026/04/22 21:55:54.04,IMU,22.46,-111.33,-779.79,-12.46,14.75,-33.44,-107.40,-67.95,-417.60,25.3
2026/04/22 21:55:54.14,IMU,-84.47,-114.26,-900.39,-2.23,3.51,-4.60,-108.30,-67.65,-417.75,25.3
2026/04/22 21:55:54.24,IMU,-37.60,-41.02,-880.37,-17.42,65.22,14.02,-109.65,-64.80,-416.85,25.3
2026/04/22 21:55:54.34,IMU,103.03,50.78,-929.20,-3.45,27.21,34.98,-112.95,-65.25,-415.80,25.3
2026/04/22 21:55:54.44,IMU,41.02,43.95,-1046.88,3.64,-57.47,-0.85,-111.90,-66.60,-415.20,25.2
2026/04/22 21:55:54.55,IMU,98.14,-128.91,-1266.11,25.40,1.42,-5.76,-109.20,-68.70,-418.20,25.4
2026/04/22 21:55:54.65,IMU,-133.79,-123.05,-1063.96,-4.84,-51.33,53.02,-108.30,-67.65,-417.75,25.4
2026/04/22 21:55:54.75,IMU,-45.41,-157.23,-1099.61,-14.57,31.36,18.58,-108.45,-69.00,-417.60,25.3
2026/04/22 21:55:54.85,IMU,-65.43,-153.81,-944.82,-7.50,-32.75,-0.03,-106.65,-67.50,-417.15,25.3
2026/04/22 21:55:54.95,IMU,-43.46,-2.44,-895.02,-14.21,40.22,-4.01,-105.30,-67.65,-418.80,25.4
2026/04/22 21:55:55.05,IMU,-40.53,-1.46,-868.65,16.37,6.46,-39.15,-107.85,-66.90,-418.05,25.1
2026/04/22 21:55:55.15,IMU,-79.59,-82.52,-1173.34,3.53,39.11,-47.50,-108.30,-66.90,-416.25,25.1
2026/04/22 21:55:55.25,IMU,120.61,-167.48,-1167.97,38.63,-3.64,-57.98,-110.25,-65.25,-416.85,25.7
2026/04/22 21:55:55.35,IMU,-104.98,-104.98,-1093.26,16.57,-38.19,-14.28,-111.75,-63.75,-415.80,25.4
2026/04/22 21:55:55.45,IMU,50.78,-95.21,-874.02,-6.82,41.70,-7.53,-110.70,-65.55,-416.40,25.3
2026/04/22 21:55:55.55,IMU,-45.90,-221.19,-960.45,13.32,-26.55,-27.36,-111.90,-63.45,-415.50,25.3
2026/04/22 21:55:55.65,IMU,-40.53,-128.91,-843.26,-5.24,-3.85,4.37,-109.65,-65.25,-416.40,25.4
2026/04/22 21:55:55.75,IMU,-15.14,-112.30,-961.91,17.38,-1.33,16.22,-109.35,-66.15,-416.70,25.3
2026/04/22 21:55:55.85,IMU,-45.41,-83.98,-963.38,14.16,-18.82,8.15,-108.60,-66.60,-415.50,25.2
2026/04/22 21:55:55.95,IMU,-47.85,-76.17,-1050.78,6.08,-5.03,8.64,-108.15,-67.20,-417.60,25.3
2026/04/22 21:55:56.05,IMU,-39.55,-45.41,-1034.67,12.11,-33.76,29.72,-108.30,-66.60,-415.50,25.4
2026/04/22 21:55:56.15,IMU,-157.71,-292.48,-1212.40,42.94,7.11,-38.36,-106.65,-68.25,-416.85,25.4
2026/04/22 21:55:56.25,IMU,-94.24,-279.30,-1050.78,-54.34,13.38,44.93,-110.55,-67.35,-415.95,25.2
2026/04/22 21:55:56.35,IMU,-92.29,-321.29,-1011.23,-36.69,2.69,-2.48,-111.90,-64.65,-414.15,25.4
2026/04/22 21:55:56.45,IMU,-110.35,-119.14,-822.75,-22.21,-21.84,7.31,-110.10,-62.40,-415.50,25.7
2026/04/22 21:55:56.55,IMU,-77.15,-56.64,-727.54,-0.69,-2.01,-3.47,-110.85,-64.35,-414.75,25.4
2026/04/22 21:55:56.65,IMU,-84.96,-141.60,-1097.17,20.15,30.68,-28.95,-110.70,-65.25,-414.60,25.4
2026/04/22 21:55:56.75,IMU,-119.14,-129.39,-1069.34,-6.50,-15.34,-4.73,-112.50,-63.30,-413.85,25.3
2026/04/22 21:55:56.85,IMU,-150.39,-86.43,-1228.52,20.10,17.15,-38.44,-111.60,-63.90,-413.70,25.4
2026/04/22 21:55:56.95,IMU,-20.51,-56.64,-1016.11,-17.38,7.02,4.81,-111.90,-64.65,-412.35,25.2
2026/04/22 21:55:57.05,IMU,45.41,-146.97,-854.98,-17.12,-10.23,-4.75,-111.75,-63.00,-412.80,25.5
2026/04/22 21:55:57.15,IMU,-95.70,-30.27,-743.65,4.18,-27.46,1.40,-110.10,-65.10,-414.15,25.2
2026/04/22 21:55:57.25,IMU,-94.73,40.53,-1018.07,-0.55,47.63,28.50,-110.85,-64.65,-414.75,25.4
2026/04/22 21:55:57.35,IMU,-5.86,-35.64,-1051.27,4.21,1.79,28.35,-109.80,-65.40,-413.70,25.4
2026/04/22 21:55:57.45,IMU,-53.71,-180.66,-1135.74,1.69,-24.43,33.56,-106.20,-68.70,-415.05,25.4
2026/04/22 21:55:57.55,IMU,-232.42,-239.75,-1014.65,17.27,-76.65,35.47,-109.80,-70.05,-409.80,25.6
2026/04/22 21:55:57.65,IMU,-148.93,-186.52,-1000.98,23.16,19.90,16.74,-102.60,-70.95,-414.60,25.4
2026/04/22 21:55:57.75,IMU,-196.29,-180.18,-930.66,-3.24,-25.01,19.92,-103.35,-70.20,-413.25,25.4
2026/04/22 21:55:57.85,IMU,-88.38,-56.15,-854.98,2.78,23.37,-13.57,-103.65,-70.50,-414.30,25.5
2026/04/22 21:55:57.96,IMU,-154.79,-153.32,-1046.39,13.89,8.94,-42.44,-103.50,-71.10,-412.95,25.4
2026/04/22 21:55:58.06,IMU,-237.79,-234.38,-1240.23,-9.53,41.68,-42.52,-104.10,-69.45,-413.25,25.6
2026/04/22 21:55:58.16,IMU,-196.78,-350.59,-1169.92,27.04,11.57,-69.24,-104.85,-67.95,-411.45,25.4
2026/04/22 21:55:58.26,IMU,-94.73,-200.20,-884.28,-23.03,14.15,57.76,-106.95,-68.25,-412.05,25.4
2026/04/22 21:55:58.36,IMU,30.76,-83.98,-906.25,3.96,11.08,40.36,-107.70,-67.95,-413.55,25.4
2026/04/22 21:55:58.46,IMU,-44.43,-152.83,-1008.79,-6.63,-4.84,1.31,-110.55,-67.65,-412.35,25.3
2026/04/22 21:55:58.57,IMU,-33.20,-77.64,-899.90,-4.61,-0.27,24.42,-111.90,-71.55,-409.80,25.4
2026/04/22 21:55:58.67,IMU,-94.24,-64.45,-1008.79,-25.50,3.46,44.50,-108.60,-69.60,-414.15,25.4
2026/04/22 21:55:58.77,IMU,48.83,-203.13,-1258.30,28.37,8.42,19.46,-106.20,-70.20,-415.80,25.4
2026/04/22 21:55:58.87,IMU,-223.63,-118.16,-935.06,-22.17,-48.34,92.63,-107.25,-70.80,-416.70,25.3
2026/04/22 21:55:58.97,IMU,-186.52,-171.39,-922.36,12.25,32.95,13.48,-104.10,-73.65,-417.60,25.1
2026/04/22 21:55:59.07,IMU,-221.68,-133.79,-965.33,-1.92,-18.24,62.63,-103.95,-76.05,-419.10,25.5
2026/04/22 21:55:59.17,IMU,-73.24,-62.99,-888.18,1.08,28.83,29.65,-104.85,-77.40,-418.95,25.4
2026/04/22 21:55:59.27,IMU,5.86,17.58,-930.66,10.00,1.75,12.51,-103.95,-77.25,-419.85,25.2
2026/04/22 21:55:59.37,IMU,-71.29,-35.16,-1035.16,19.40,-2.21,11.16,-104.40,-80.85,-418.65,25.4
2026/04/22 21:55:59.47,IMU,-234.86,-273.93,-1322.27,69.11,-33.17,-25.21,-102.90,-83.40,-420.45,25.5
2026/04/22 21:55:59.57,IMU,-99.61,-299.80,-1072.27,-3.47,29.89,61.95,-104.25,-83.25,-417.75,25.4
2026/04/22 21:55:59.67,IMU,-59.08,-181.15,-827.64,5.56,-3.00,45.37,-104.85,-82.65,-417.90,25.3
2026/04/22 21:55:59.77,IMU,-118.65,-140.63,-880.37,-8.07,-0.82,41.77,-101.10,-85.35,-418.65,25.4
2026/04/22 21:55:59.87,IMU,-92.29,-58.11,-992.19,-8.78,-3.17,23.80,-100.50,-86.25,-419.55,25.4
2026/04/22 21:55:59.97,IMU,-102.54,-79.10,-1019.04,-29.52,-2.69,32.02,-97.05,-86.10,-420.45,25.4
2026/04/22 21:56:00.07,IMU,-174.32,-19.53,-907.71,-16.97,-16.47,22.79,-96.75,-85.35,-423.00,25.3
2026/04/22 21:56:00.17,IMU,-375.00,-272.46,-1065.92,-16.16,-25.97,-7.21,-96.45,-87.00,-422.40,25.3
2026/04/22 21:56:00.27,IMU,-226.56,-262.70,-991.70,7.42,10.23,-21.65,-96.45,-85.95,-423.90,25.7
2026/04/22 21:56:00.37,IMU,-111.82,-179.20,-865.72,-15.98,13.44,27.47,-96.15,-86.70,-424.95,25.6
2026/04/22 21:56:00.47,IMU,-25.88,-73.73,-903.81,-7.27,33.71,-14.98,-98.40,-85.50,-426.00,25.8
2026/04/22 21:56:00.57,IMU,-80.57,-43.95,-938.48,-1.89,-11.76,-40.52,-100.20,-84.45,-426.00,25.7
2026/04/22 21:56:00.68,IMU,-127.93,-100.59,-948.73,-5.53,-21.71,-56.37,-100.50,-83.25,-426.00,25.3
2026/04/22 21:56:00.78,IMU,-177.73,-101.56,-1387.21,-49.60,5.66,12.42,-100.95,-83.25,-428.25,25.5
2026/04/22 21:56:00.88,IMU,-243.65,-450.20,-1482.91,-27.11,5.05,-89.12,-107.70,-80.40,-428.70,25.3
2026/04/22 21:56:00.98,IMU,107.42,-297.85,-905.27,-33.89,68.89,-100.53,-114.75,-70.95,-428.70,25.4
2026/04/22 21:56:01.08,IMU,86.91,-92.29,-675.78,0.58,-1.05,-94.07,-125.25,-64.65,-426.30,25.2
2026/04/22 21:56:01.18,IMU,-140.14,-67.87,-791.02,18.19,-39.01,-64.53,-124.05,-60.15,-427.50,25.5
2026/04/22 21:56:01.28,IMU,-134.77,62.01,-801.76,3.50,-43.22,0.44,-122.70,-61.65,-428.55,25.5
2026/04/22 21:56:01.38,IMU,-118.65,57.62,-1021.48,22.27,-17.27,-17.99,-117.75,-63.00,-430.20,25.4
2026/04/22 21:56:01.48,IMU,-196.29,2.93,-1169.92,25.85,-18.89,-20.36,-113.40,-66.90,-429.30,25.6
2026/04/22 21:56:01.58,IMU,-235.84,71.78,-1051.76,7.98,0.60,-15.48,-113.70,-67.95,-430.95,25.5
2026/04/22 21:56:01.68,IMU,-100.59,43.95,-921.88,8.15,5.38,-17.01,-114.60,-68.40,-430.65,25.4
2026/04/22 21:56:01.78,IMU,-66.89,-84.96,-883.79,28.24,-22.02,-24.01,-112.95,-68.70,-429.15,25.4
2026/04/22 21:56:01.88,IMU,-110.35,-221.68,-1226.07,5.43,45.95,-42.28,-116.70,-70.80,-428.55,25.2
2026/04/22 21:56:01.98,IMU,1.46,-365.23,-1354.49,-22.12,9.58,-35.37,-118.05,-70.20,-429.15,25.4
2026/04/22 21:56:02.08,IMU,156.74,-71.78,-1085.45,-24.02,-70.92,-6.76,-119.55,-68.25,-429.75,25.6
2026/04/22 21:56:02.18,IMU,-252.93,-167.48,-1130.37,-24.11,-23.44,30.59,-116.40,-65.85,-432.15,25.5
2026/04/22 21:56:02.28,IMU,-263.18,-22.95,-1038.57,-38.15,43.44,39.35,-114.15,-62.40,-434.70,25.4
2026/04/22 21:56:02.38,IMU,-72.75,92.29,-810.06,-47.02,-12.15,3.05,-118.05,-58.05,-434.85,25.4
2026/04/22 21:56:02.48,IMU,-53.71,214.36,-727.05,-82.07,-4.65,22.65,-116.55,-54.15,-434.55,25.2
2026/04/22 21:56:02.58,IMU,-89.84,373.54,-995.61,-46.31,-31.64,14.82,-115.95,-48.00,-436.50,25.7
2026/04/22 21:56:02.68,IMU,-26.37,272.46,-939.94,-34.74,-14.47,14.96,-110.70,-44.70,-436.65,25.4
2026/04/22 21:56:02.78,IMU,-20.02,231.93,-802.73,-30.74,6.89,-22.89,-110.85,-41.10,-437.25,25.4
2026/04/22 21:56:02.88,IMU,-109.86,126.95,-408.20,33.92,-6.79,-75.95,-111.75,-39.00,-438.45,25.3
2026/04/22 21:56:02.98,IMU,-290.53,207.03,-775.39,6.07,46.34,8.45,-110.25,-42.90,-441.30,25.6
2026/04/22 21:56:03.09,IMU,-289.55,68.85,-646.00,45.46,35.81,-3.31,-116.25,-47.40,-435.90,25.6
2026/04/22 21:56:03.19,IMU,-236.82,9.28,-851.07,71.75,2.73,7.60,-114.00,-52.65,-441.30,25.4
2026/04/22 21:56:03.29,IMU,-96.68,-61.52,-1118.16,64.13,76.26,18.72,-117.45,-63.90,-439.80,25.6
2026/04/22 21:56:03.39,IMU,-5.86,-72.27,-1277.83,52.95,2.34,24.83,-120.30,-70.95,-436.35,25.4
2026/04/22 21:56:03.49,IMU,93.75,-108.89,-1149.41,5.40,13.86,40.29,-119.55,-72.45,-434.10,25.6
2026/04/22 21:56:03.59,IMU,177.73,-49.32,-1109.86,5.34,7.08,7.92,-117.15,-74.10,-433.95,25.5
2026/04/22 21:56:03.69,IMU,89.36,-29.30,-898.93,-4.10,40.02,0.13,-118.95,-74.55,-434.70,25.4
2026/04/22 21:56:03.79,IMU,225.59,-88.87,-923.34,8.96,30.53,-28.17,-123.45,-74.85,-433.65,25.6
2026/04/22 21:56:03.89,IMU,384.28,287.11,-1502.93,16.32,19.74,-29.12,-126.30,-72.60,-433.20,25.4
2026/04/22 21:56:03.99,IMU,84.96,-85.45,-974.12,4.05,-42.44,4.40,-127.80,-74.10,-431.85,25.7
2026/04/22 21:56:04.10,IMU,72.75,-80.08,-910.64,9.31,14.09,12.50,-125.25,-75.30,-433.95,25.4
2026/04/22 21:56:04.20,IMU,152.83,-195.31,-997.07,18.31,44.47,7.98,-129.75,-75.90,-429.75,25.4
2026/04/22 21:56:04.30,IMU,163.57,-135.74,-1165.04,-1.21,-5.95,32.92,-131.70,-79.65,-426.90,25.2
2026/04/22 21:56:04.40,IMU,126.46,-219.73,-911.13,15.15,27.19,41.52,-135.00,-78.15,-421.20,25.4
2026/04/22 21:56:04.50,IMU,165.04,-255.86,-1101.07,-0.05,-13.14,46.58,-132.60,-95.85,-425.70,25.4
2026/04/22 21:56:04.60,IMU,143.55,-307.13,-1105.47,8.74,47.11,2.79,-129.30,-123.15,-415.95,25.7
2026/04/22 21:56:04.70,IMU,288.09,-253.91,-1019.53,-1.78,28.63,5.21,-101.55,-157.95,-380.70,25.4
2026/04/22 21:56:04.80,IMU,178.22,-227.54,-872.07,51.73,2.47,-67.06,-68.70,-175.65,-383.25,25.5
2026/04/22 21:56:04.90,IMU,260.25,-453.13,-976.56,-48.21,50.39,-23.45,-50.55,-181.95,-380.85,25.2
2026/04/22 21:56:05.00,IMU,411.13,-187.99,-952.15,-74.10,69.90,-17.82,-50.10,-179.70,-382.05,25.7
2026/04/22 21:56:05.10,IMU,554.69,-78.61,-650.39,18.77,-98.90,-4.29,-52.20,-179.10,-380.70,25.3
2026/04/22 21:56:05.20,IMU,352.05,-32.23,-1767.09,-25.34,-65.04,68.66,-41.70,-183.15,-394.95,25.3
2026/04/22 21:56:05.30,IMU,139.65,-91.80,-322.75,-16.45,-161.31,40.60,-28.05,-189.90,-401.85,25.7
2026/04/22 21:56:05.40,IMU,-471.19,-82.52,-1833.50,-8.09,13.00,4.68,-13.20,-187.50,-404.85,25.5
2026/04/22 21:56:05.50,IMU,-120.12,-22.46,-1043.95,0.40,0.21,0.27,-11.55,-188.10,-404.40,25.4
2026/04/22 21:56:05.60,IMU,-125.98,-14.16,-1013.18,0.58,1.77,-0.64,-10.65,-188.70,-405.30,25.4
2026/04/22 21:56:05.70,IMU,-114.26,-3.42,-1007.32,0.82,0.31,0.14,-15.00,-190.95,-398.70,25.5
2026/04/22 21:56:05.80,IMU,-133.79,-9.28,-1015.14,-0.25,1.47,-1.91,-10.35,-187.65,-403.95,25.5
2026/04/22 21:56:05.90,IMU,-161.62,-14.16,-995.61,0.52,-0.71,-1.78,-11.10,-189.90,-403.95,25.7
2026/04/22 21:56:06.00,IMU,-110.84,-29.79,-942.87,1.98,9.65,-3.18,-11.40,-190.50,-403.05,25.4
2026/04/22 21:56:06.10,IMU,-119.14,-14.65,-1009.28,-0.12,0.85,-0.87,-9.45,-190.50,-402.30,25.3
2026/04/22 21:56:06.20,IMU,-127.44,-16.60,-1003.42,0.39,0.05,-1.31,-11.10,-191.10,-402.15,25.7
2026/04/22 21:56:06.30,IMU,-109.86,-8.79,-1011.72,-0.57,0.57,1.44,-11.40,-192.00,-401.70,25.3
2026/04/22 21:56:06.40,IMU,-115.72,-12.70,-1009.28,-0.73,2.54,-1.10,-9.90,-190.95,-402.30,25.4
2026/04/22 21:56:06.51,IMU,-118.65,15.14,-998.05,0.63,-2.98,0.47,-10.35,-189.90,-402.60,25.4
2026/04/22 21:56:06.61,IMU,-104.00,-1.46,-1012.21,0.56,2.13,0.34,-10.35,-190.35,-401.40,25.3
2026/04/22 21:56:06.71,IMU,-121.58,-32.23,-996.09,1.00,0.55,-0.19,-12.00,-189.00,-402.75,25.7
2026/04/22 21:56:06.81,IMU,-117.19,-12.70,-1005.37,-0.55,4.47,-1.21,-10.95,-189.45,-402.75,25.4
2026/04/22 21:56:06.92,IMU,-111.82,-20.51,-1005.86,-1.21,0.34,1.25,-11.70,-188.25,-401.70,25.5
2026/04/22 21:56:07.02,IMU,-120.61,-20.51,-1016.60,-0.03,-2.45,1.55,-11.55,-189.60,-402.60,25.5
2026/04/22 21:56:07.12,IMU,-122.07,-4.39,-1001.46,2.18,0.01,-0.20,-11.55,-189.15,-402.15,25.4
2026/04/22 21:56:07.22,IMU,-111.82,-18.55,-1014.16,1.84,1.26,0.45,-12.00,-189.45,-401.25,25.5
2026/04/22 21:56:07.32,IMU,-120.12,-8.30,-1012.21,0.23,0.08,-2.12,-12.30,-189.60,-402.15,25.6
2026/04/22 21:56:07.42,IMU,-112.79,-2.44,-1014.65,0.21,-0.89,-0.47,-11.10,-189.15,-403.65,25.4
2026/04/22 21:56:07.52,IMU,-109.86,-14.65,-1005.37,-0.56,-1.26,-0.34,-10.95,-190.20,-402.00,25.7
2026/04/22 21:56:07.62,IMU,-115.23,-14.16,-1004.39,-0.24,-0.95,2.53,-11.55,-189.90,-401.85,25.6
2026/04/22 21:56:07.72,IMU,-118.16,-14.16,-1006.35,2.38,1.59,-1.79,-11.55,-188.40,-401.10,25.4
2026/04/22 21:56:07.82,IMU,-126.95,-6.35,-993.16,-1.02,1.17,0.02,-11.40,-189.75,-402.75,25.7
2026/04/22 21:56:07.92,IMU,-123.54,-22.46,-992.19,0.08,0.98,-1.09,-11.40,-189.45,-402.75,25.3
2026/04/22 21:56:08.02,IMU,-117.68,-0.98,-1016.11,-0.57,1.05,1.17,-12.60,-189.60,-402.90,25.7
2026/04/22 21:56:08.12,IMU,-120.12,-13.18,-1012.21,0.39,0.36,0.82,-10.35,-189.60,-402.15,25.4
2026/04/22 21:56:08.22,IMU,-114.75,-0.98,-1007.32,0.34,0.63,-0.41,-11.70,-189.00,-401.70,25.4
2026/04/22 21:56:08.32,IMU,-114.75,-8.79,-1007.32,-0.19,-0.63,1.98,-10.65,-189.75,-402.75,25.5
2026/04/22 21:56:08.42,IMU,-115.23,-10.74,-1014.65,0.68,3.28,0.59,-10.80,-189.15,-401.85,25.7
2026/04/22 21:56:08.52,IMU,-121.09,-24.90,-1003.42,-0.05,-0.06,-0.88,-12.30,-190.65,-402.60,25.4
2026/04/22 21:56:08.62,IMU,-115.72,-8.30,-1001.95,-0.29,2.73,-0.91,-12.60,-188.85,-401.40,25.4
2026/04/22 21:56:08.72,IMU,-105.47,-19.53,-1004.88,2.03,1.63,1.12,-10.80,-188.85,-403.20,25.5
2026/04/22 21:56:08.82,IMU,-117.19,-2.44,-1009.77,1.53,0.32,-0.29,-10.20,-189.00,-401.70,25.7
2026/04/22 21:56:08.92,IMU,-112.30,-22.95,-1065.43,-1.11,-1.88,3.52,-11.55,-188.40,-402.15,25.6
2026/04/22 21:56:09.02,IMU,-109.86,-4.39,-991.70,0.93,-1.01,-2.04,-12.60,-190.65,-401.40,25.4
2026/04/22 21:56:09.12,IMU,-115.23,-16.11,-1012.70,0.89,-0.11,-1.68,-12.00,-187.50,-402.30,25.4
2026/04/22 21:56:09.22,IMU,-105.47,-16.60,-1013.18,1.58,-0.06,-0.78,-10.80,-189.15,-401.85,25.8
2026/04/22 21:56:09.32,IMU,-122.07,-18.55,-1010.74,0.96,-0.56,-0.93,-10.95,-189.45,-402.75,25.4
2026/04/22 21:56:09.42,IMU,-115.72,-17.09,-1004.88,1.69,-2.11,-0.66,-11.55,-188.85,-401.85,25.3
2026/04/22 21:56:09.52,IMU,-129.88,4.88,-1009.28,0.83,1.35,0.08,-11.70,-188.70,-402.30,25.4
2026/04/22 21:56:09.62,IMU,-113.77,-12.21,-1018.07,1.98,1.77,-1.03,-10.65,-188.25,-402.30,25.9
2026/04/22 21:56:09.72,IMU,-112.79,-14.65,-1021.00,0.76,1.89,-1.47,-11.55,-188.85,-402.15,25.5
2026/04/22 21:56:09.82,IMU,-110.35,-18.55,-1019.53,-0.51,0.68,0.30,-11.70,-189.45,-402.30,25.6
2026/04/22 21:56:09.92,IMU,-125.98,-24.90,-1011.23,0.38,0.30,-1.53,-10.65,-190.20,-401.70,25.3
2026/04/22 21:56:10.02,IMU,-119.14,-14.65,-1016.11,0.26,1.87,3.47,-10.35,-190.65,-401.85,25.4
2026/04/22 21:56:10.12,IMU,-118.16,-11.23,-1009.28,0.19,0.52,2.53,-11.70,-189.00,-403.50,25.4
2026/04/22 21:56:10.22,IMU,-114.75,1.95,-1010.74,0.24,0.53,-0.37,-12.00,-189.45,-402.00,25.4
2026/04/22 21:56:10.32,IMU,-115.72,-19.04,-1002.93,0.80,2.05,0.05,-11.10,-189.15,-402.60,25.4
2026/04/22 21:56:10.43,IMU,-47.36,108.40,-1040.53,-0.63,-1.98,3.82,-11.55,-189.60,-402.15,25.6
2026/04/22 21:56:10.53,IMU,-263.67,-360.35,-1009.77,1.51,-3.29,-26.32,-10.80,-189.15,-401.85,25.5
2026/04/22 21:56:10.63,IMU,50.29,-192.38,-1094.73,29.92,16.91,65.25,-13.20,-189.45,-402.00,25.6
2026/04/22 21:56:10.73,IMU,16.60,-57.62,-1009.77,7.20,27.65,-21.55,-12.60,-190.35,-401.85,25.7
2026/04/22 21:56:10.83,IMU,-15.14,-44.43,-828.61,5.75,-0.60,5.53,-15.15,-189.90,-402.90,25.6
2026/04/22 21:56:10.93,IMU,85.94,-46.39,-1284.18,-3.20,16.27,17.64,-14.85,-188.10,-402.60,25.7
2026/04/22 21:56:11.03,IMU,-180.18,27.83,-1101.56,-23.37,30.56,34.30,-15.45,-189.45,-404.55,25.6
2026/04/22 21:56:11.13,IMU,-49.32,25.88,-1044.92,-44.89,-44.92,74.08,-12.30,-186.90,-406.95,25.5
2026/04/22 21:56:11.23,IMU,-59.08,96.19,-927.73,19.14,40.23,34.91,-10.80,-182.70,-408.30,25.7
2026/04/22 21:56:11.33,IMU,-48.34,-80.08,-1100.59,34.73,120.17,62.44,-13.95,-188.25,-404.55,25.7
2026/04/22 21:56:11.43,IMU,94.73,-80.57,-884.28,-2.97,-83.95,11.34,-13.20,-188.70,-403.05,25.4
2026/04/22 21:56:11.53,IMU,-83.98,-37.60,-416.99,-27.02,-72.50,-7.85,-6.60,-188.70,-403.05,25.4
2026/04/22 21:56:11.63,IMU,-56.15,-7.32,-997.07,-6.45,-18.60,4.88,-4.50,-186.90,-402.60,25.4
2026/04/22 21:56:11.73,IMU,-70.31,-29.30,-1002.44,0.92,2.21,-2.52,-3.60,-187.05,-402.75,25.6
