Timestamp,Sensor,AccX,AccY,AccZ,GyrX,GyrY,GyrZ,MagX,MagY,MagZ,Temp
2026/05/20 21:17:31.24,IMU,-127.44,-95.21,1001.95,-0.79,-0.96,0.22,-100.35,-6.75,-219.75,31.1
2026/05/20 21:17:31.34,IMU,-97.66,6.84,960.45,-3.31,3.54,-3.53,-100.95,-6.60,-218.40,31.0
2026/05/20 21:17:31.44,IMU,-71.78,-86.91,982.91,-2.08,-5.60,0.70,-101.85,-7.20,-218.70,31.1
2026/05/20 21:17:31.54,IMU,-92.77,-111.33,971.68,-3.94,2.70,-6.44,-101.70,-6.60,-220.35,31.4
2026/05/20 21:17:31.64,IMU,-87.40,-153.81,986.82,1.55,-2.15,1.82,-102.45,-8.10,-218.40,31.1
2026/05/20 21:17:31.74,IMU,-69.34,-99.12,982.91,1.87,0.55,0.33,-100.80,-6.75,-219.75,31.3
2026/05/20 21:17:31.84,IMU,-102.05,-91.31,996.58,-2.02,0.05,-1.37,-101.55,-6.45,-219.00,31.4
2026/05/20 21:17:31.94,IMU,-82.03,-104.00,994.63,0.71,-1.50,-1.38,-101.25,-8.10,-220.65,31.2
2026/05/20 21:17:32.04,IMU,-87.89,-109.86,992.19,1.43,-0.11,-0.66,-101.70,-6.15,-218.40,31.0
2026/05/20 21:17:32.14,IMU,-70.80,-66.89,1061.04,1.85,-1.73,5.18,-102.15,-6.00,-219.75,31.0
2026/05/20 21:17:32.24,IMU,-83.50,-55.18,992.68,-4.52,-2.64,1.76,-100.35,-4.80,-219.00,31.1
2026/05/20 21:17:32.34,IMU,-92.29,-104.98,974.12,2.18,0.44,2.82,-101.70,-6.60,-219.90,31.1
2026/05/20 21:17:32.44,IMU,-77.15,-107.91,1022.95,11.57,-1.17,10.04,-101.55,-6.45,-218.25,31.2
2026/05/20 21:17:32.54,IMU,-95.21,-140.14,1056.15,17.93,-5.72,22.15,-101.10,-6.00,-220.50,31.2
2026/05/20 21:17:32.64,IMU,-38.09,-32.71,993.65,22.28,3.89,25.18,-101.85,-6.00,-220.80,31.0
2026/05/20 21:17:32.74,IMU,-87.40,32.71,990.23,33.99,11.58,27.45,-102.15,-5.25,-219.45,31.3
2026/05/20 21:17:32.84,IMU,-27.83,-208.98,922.36,21.18,16.45,15.63,-100.35,-5.25,-218.70,31.4
2026/05/20 21:17:32.94,IMU,-118.65,139.16,984.38,3.22,10.78,-13.78,-101.70,-3.60,-218.40,31.0
2026/05/20 21:17:33.05,IMU,-101.56,137.70,968.75,3.13,1.10,-8.69,-100.05,-3.75,-217.95,31.1
2026/05/20 21:17:33.15,IMU,-141.11,132.81,960.94,-0.60,-4.44,-1.19,-99.60,-3.75,-219.75,31.1
2026/05/20 21:17:33.25,IMU,-146.48,93.75,968.75,6.63,-5.15,-1.27,-100.35,-3.75,-219.45,31.2
2026/05/20 21:17:33.35,IMU,-118.65,151.86,988.28,15.42,-5.28,3.09,-99.90,-2.70,-219.60,31.1
2026/05/20 21:17:33.45,IMU,-97.17,164.55,981.93,1.49,-2.99,-1.32,-100.05,-3.00,-218.25,31.2
2026/05/20 21:17:33.57,IMU,-105.96,152.34,979.49,-5.18,-3.11,0.77,-100.50,-1.20,-219.60,31.1
2026/05/20 21:17:33.67,IMU,-96.68,173.34,978.52,-0.45,-0.14,-1.70,-101.85,-3.75,-218.70,31.2
2026/05/20 21:17:33.77,IMU,-106.45,145.51,977.54,-2.00,-1.87,-0.34,-101.10,-2.55,-220.05,31.3
2026/05/20 21:17:33.87,IMU,-103.52,144.04,985.35,0.99,-2.37,5.82,-100.05,-3.75,-219.75,31.0
2026/05/20 21:17:33.97,IMU,-97.66,180.66,954.59,-3.24,-0.11,-0.42,-100.95,-2.70,-219.60,31.0
2026/05/20 21:17:34.07,IMU,-93.26,160.64,993.65,2.40,0.04,1.02,-101.55,-3.30,-220.50,31.1
2026/05/20 21:17:34.17,IMU,-112.30,152.83,975.10,2.44,-2.06,2.51,-100.95,-3.15,-220.35,31.2
2026/05/20 21:17:34.27,IMU,-91.31,139.16,971.68,-2.58,0.60,-1.29,-102.90,-2.25,-219.75,31.2
2026/05/20 21:17:34.37,IMU,-84.47,143.07,969.73,-4.21,3.26,-2.15,-100.20,-3.60,-220.35,31.4
2026/05/20 21:17:34.47,IMU,-174.32,166.99,1005.37,7.08,1.09,2.87,-101.25,-3.15,-219.60,31.4
2026/05/20 21:17:34.57,IMU,-108.89,163.09,981.93,-29.46,7.98,-11.72,-101.85,-2.25,-219.00,31.0
2026/05/20 21:17:34.67,IMU,-117.19,94.24,980.96,-16.87,2.72,-10.57,-100.50,-1.95,-218.10,31.1
2026/05/20 21:17:34.77,IMU,-83.01,-36.13,1155.76,5.43,-7.18,-8.40,-100.50,-4.65,-219.60,31.1
2026/05/20 21:17:34.87,IMU,-56.64,76.66,987.79,14.63,-6.82,-15.78,-102.60,-2.55,-220.50,30.9
2026/05/20 21:17:34.97,IMU,-78.61,136.23,954.59,-12.19,2.23,-20.11,-101.25,-2.40,-220.95,31.0
2026/05/20 21:17:35.08,IMU,-118.16,100.10,1010.74,16.66,-20.55,3.70,-101.10,-2.55,-219.75,30.9
2026/05/20 21:17:35.18,IMU,-48.34,156.74,997.07,17.34,-18.34,0.44,-102.15,-0.75,-221.55,31.1
2026/05/20 21:17:35.28,IMU,-29.79,217.29,986.33,-3.50,1.43,-0.67,-103.35,-1.05,-221.55,31.2
2026/05/20 21:17:35.38,IMU,-85.94,138.18,997.07,-14.59,-0.05,5.87,-101.10,-0.30,-221.55,31.2
2026/05/20 21:17:35.48,IMU,-58.11,129.88,985.35,-7.99,1.31,4.78,-101.70,-3.15,-220.95,31.1
2026/05/20 21:17:35.58,IMU,-39.06,77.64,966.80,-5.91,0.26,7.38,-102.00,-1.95,-220.35,31.2
2026/05/20 21:18:03.04,IMU,-49.32,90.33,980.96,5.35,1.56,1.85,-101.70,-1.65,-220.95,31.1
2026/05/20 21:18:03.14,IMU,-38.09,105.96,973.63,-0.39,1.57,4.13,-101.85,-2.25,-220.80,31.3
2026/05/20 21:18:03.24,IMU,-48.83,83.01,1021.97,4.20,-4.14,5.29,-102.45,-3.15,-220.65,31.0
2026/05/20 21:18:03.34,IMU,-50.78,147.95,979.98,-6.18,-0.30,5.42,-101.70,-2.70,-220.65,31.1
2026/05/20 21:18:03.44,IMU,-29.79,129.39,970.21,-3.27,-3.57,-0.79,-101.70,-2.70,-220.65,31.2
2026/05/20 21:18:03.55,IMU,-37.11,126.46,978.03,-0.23,0.13,2.59,-101.25,-1.65,-221.70,31.1
2026/05/20 21:18:03.65,IMU,-44.43,83.01,974.61,0.24,2.49,6.32,-101.25,-2.40,-220.95,31.1
2026/05/20 21:18:03.75,IMU,-52.73,91.31,995.61,-3.28,0.60,1.46,-102.75,-2.70,-220.65,31.1
2026/05/20 21:18:03.85,IMU,-57.62,85.94,982.91,0.10,-0.05,3.82,-103.35,-3.00,-220.05,31.2
2026/05/20 21:18:03.95,IMU,-56.64,91.31,1010.74,-0.23,-0.89,3.05,-102.45,-2.70,-221.70,31.0
2026/05/20 21:18:04.06,IMU,-63.96,77.15,1001.46,12.11,-1.24,2.23,-101.70,-2.70,-219.90,31.1
2026/05/20 21:18:04.16,IMU,-41.02,158.20,985.35,2.55,-0.87,2.67,-102.75,-2.40,-220.65,31.0
2026/05/20 21:18:04.26,IMU,-54.20,100.10,995.61,-4.07,5.23,1.09,-102.90,-2.55,-222.30,31.0
2026/05/20 21:18:04.36,IMU,-49.80,103.03,984.86,3.44,-0.92,0.35,-101.85,-3.00,-220.80,31.0
2026/05/20 21:18:04.46,IMU,-50.78,113.77,974.12,-2.02,-1.17,-1.24,-101.70,-2.40,-222.15,31.1
2026/05/20 21:18:04.56,IMU,-42.48,97.17,991.21,1.14,0.79,-2.49,-102.90,-2.55,-219.45,31.0
2026/05/20 21:18:04.66,IMU,-56.15,104.98,1020.02,-1.34,3.72,1.88,-102.60,-1.05,-220.05,31.0
2026/05/20 21:18:04.76,IMU,-61.52,143.55,969.73,-5.53,4.19,0.28,-105.30,-4.35,-217.35,31.1
2026/05/20 21:18:04.86,IMU,-77.64,103.03,997.07,-9.25,3.01,-1.46,-101.10,-1.50,-219.45,31.0
2026/05/20 21:18:04.96,IMU,-77.15,62.01,975.59,4.94,-3.18,4.48,-101.85,-3.00,-219.75,31.2
2026/05/20 21:18:05.08,IMU,-77.64,59.57,1012.70,3.63,-0.05,1.59,-101.55,-2.55,-220.80,31.2
2026/05/20 21:18:05.18,IMU,-43.46,106.93,1010.25,-2.12,4.60,1.67,-100.35,-2.25,-219.45,31.1
2026/05/20 21:18:05.28,IMU,-81.54,122.07,983.89,-4.24,7.93,-5.19,-101.25,-3.15,-220.35,31.2
2026/05/20 21:18:05.38,IMU,-92.29,163.57,995.12,14.00,3.26,3.79,-101.70,-1.20,-220.35,31.1
2026/05/20 21:18:05.48,IMU,-86.91,149.90,982.42,14.73,0.66,3.98,-100.95,-1.95,-218.85,31.0
2026/05/20 21:18:05.58,IMU,-100.10,171.39,990.72,-8.27,5.01,-8.76,-101.55,-1.50,-220.05,31.1
2026/05/20 21:18:05.68,IMU,-89.84,120.12,976.56,-4.82,-0.57,-3.92,-101.10,-1.50,-220.05,30.9
2026/05/20 21:18:05.78,IMU,-92.77,152.34,900.39,0.92,-0.88,-5.50,-103.95,-4.35,-215.55,31.1
2026/05/20 21:18:05.88,IMU,-101.07,109.37,970.70,-3.13,2.44,-3.08,-101.70,-1.20,-220.65,31.1
2026/05/20 21:18:05.98,IMU,-116.21,104.49,991.21,4.62,-2.50,4.53,-101.55,-1.80,-220.50,31.2
2026/05/20 21:18:06.08,IMU,-85.94,151.37,986.82,-15.59,1.37,-3.20,-101.25,-2.70,-219.60,31.1
2026/05/20 21:18:06.18,IMU,-101.07,89.84,976.07,-5.53,-0.60,2.50,-101.85,-3.00,-219.75,31.1
2026/05/20 21:18:06.28,IMU,-76.17,67.87,923.34,-14.76,0.30,3.66,-101.25,-1.95,-219.60,31.1
2026/05/20 21:18:06.39,IMU,-105.96,64.45,985.35,4.10,-3.23,6.99,-101.10,-3.30,-220.05,31.0
2026/05/20 21:18:06.49,IMU,-80.57,96.68,875.49,-1.18,-2.40,5.37,-101.55,-3.00,-219.00,31.0
2026/05/20 21:18:06.59,IMU,-77.64,44.92,1044.92,7.18,-3.66,8.61,-101.85,-3.00,-220.50,31.1
2026/05/20 21:18:06.69,IMU,-95.70,118.16,1001.95,4.45,-1.66,3.18,-102.75,-3.60,-219.60,31.0
2026/05/20 21:18:06.79,IMU,-70.80,68.36,1020.02,0.98,1.45,0.39,-105.30,-5.85,-215.25,30.9
2026/05/20 21:18:06.89,IMU,-78.12,110.35,1013.67,-1.04,4.65,0.46,-102.45,-2.40,-219.60,30.8
2026/05/20 21:18:06.99,IMU,-84.47,52.73,997.07,-6.48,1.34,1.33,-100.95,-4.35,-220.65,31.0
2026/05/20 21:18:07.10,IMU,-83.98,100.59,990.23,8.50,-4.64,5.23,-102.75,-2.40,-219.90,31.1
2026/05/20 21:18:07.20,IMU,-72.75,123.05,1000.49,4.41,0.72,2.72,-103.65,-2.25,-219.75,31.0
2026/05/20 21:18:07.30,IMU,-84.47,106.93,1021.97,5.43,7.14,3.53,-101.70,-1.95,-219.90,31.0
2026/05/20 21:18:07.41,IMU,-97.17,156.25,990.72,-7.45,-1.34,1.84,-102.45,-2.70,-220.65,31.0
2026/05/20 21:18:07.51,IMU,-68.36,143.55,994.63,-7.62,1.50,-1.91,-100.95,-3.15,-222.15,31.0
2026/05/20 21:18:07.61,IMU,-76.17,112.79,966.80,-2.89,4.05,-4.53,-101.55,-4.05,-220.80,31.1
2026/05/20 21:18:07.73,IMU,-79.59,114.26,982.42,0.89,0.78,1.56,-100.95,-1.65,-220.65,31.0
2026/05/20 21:18:07.83,IMU,-76.17,123.05,974.12,3.05,1.01,3.96,-105.00,-5.40,-216.30,31.1
2026/05/20 21:18:07.93,IMU,-74.71,144.53,1004.88,2.50,-2.15,2.42,-102.45,-3.90,-219.15,30.6
2026/05/20 21:18:08.03,IMU,-80.57,131.84,998.05,2.12,1.31,0.50,-101.70,-3.60,-220.35,30.7
2026/05/20 21:18:08.13,IMU,-69.34,129.88,1032.23,7.33,1.16,5.23,-102.00,-1.20,-220.65,31.0
2026/05/20 21:18:08.23,IMU,-90.33,156.74,973.63,-0.14,1.27,-1.86,-102.45,-1.20,-220.35,31.0
2026/05/20 21:18:08.33,IMU,-79.59,172.85,988.28,-6.66,4.48,-5.34,-101.70,-1.65,-220.35,31.1
2026/05/20 21:18:08.43,IMU,-92.77,173.34,987.30,4.00,13.08,-1.24,-101.70,-2.70,-219.60,31.0
2026/05/20 21:18:08.53,IMU,-111.82,196.78,980.96,-1.24,7.53,-8.47,-102.60,-1.50,-219.45,30.9
2026/05/20 21:18:08.63,IMU,-132.81,131.35,980.96,-6.31,-14.37,-2.97,-101.55,-1.80,-219.75,31.0
2026/05/20 21:18:08.73,IMU,-125.98,117.68,973.14,5.93,-10.06,-4.10,-103.35,-1.80,-219.00,31.0
2026/05/20 21:18:08.84,IMU,-81.05,136.72,980.96,3.56,-15.19,-0.18,-101.85,-0.75,-220.50,31.0
2026/05/20 21:18:08.94,IMU,-35.16,134.77,982.91,-0.73,-15.90,-1.10,-102.00,-0.90,-220.95,30.9
2026/05/20 21:18:09.04,IMU,-5.86,162.11,1000.49,-7.19,-17.34,-1.92,-103.65,-0.75,-221.25,31.0
2026/05/20 21:18:09.17,IMU,-0.98,122.56,986.33,-11.60,-7.56,-2.01,-103.65,-1.80,-223.05,31.0
2026/05/20 21:18:09.27,IMU,23.93,108.89,991.21,-16.65,-1.88,-5.31,-105.00,-2.70,-223.20,31.0
2026/05/20 21:18:09.37,IMU,-7.32,125.98,985.35,-18.28,-1.85,-7.57,-104.10,-2.55,-221.85,31.0
2026/05/20 21:18:09.47,IMU,21.00,54.69,957.03,-3.62,-3.54,2.61,-106.95,-5.25,-218.25,30.9
2026/05/20 21:18:09.57,IMU,-13.67,57.62,1005.86,1.64,-0.87,0.68,-104.55,-2.40,-224.25,30.9
2026/05/20 21:18:09.67,IMU,-35.16,76.66,1049.80,1.47,1.31,-0.78,-103.95,-1.95,-223.20,31.0
2026/05/20 21:18:09.77,IMU,31.25,120.61,980.47,1.53,-2.85,-1.81,-105.60,-1.80,-223.05,30.7
2026/05/20 21:18:09.87,IMU,48.83,56.15,1005.37,-8.45,0.88,2.41,-109.65,-5.25,-219.45,30.7
2026/05/20 21:18:09.97,IMU,30.76,48.34,986.82,-5.82,3.32,-3.39,-105.15,-3.00,-222.30,30.9
2026/05/20 21:18:10.07,IMU,26.86,100.59,980.47,-1.00,0.52,-1.49,-104.10,-3.30,-222.60,30.8
2026/05/20 21:18:10.17,IMU,21.48,38.57,987.30,-2.98,-1.89,2.86,-104.55,-2.40,-223.20,31.0
2026/05/20 21:18:10.29,IMU,11.72,54.20,999.51,-0.59,3.29,1.31,-105.00,-0.90,-223.20,31.0
2026/05/20 21:18:10.39,IMU,26.37,74.71,1006.35,1.58,-3.71,0.40,-105.00,-3.60,-222.45,30.9
2026/05/20 21:18:10.49,IMU,24.41,65.43,995.12,0.11,-1.70,1.82,-103.35,-1.80,-222.60,30.6
2026/05/20 21:18:10.60,IMU,28.81,57.13,1003.42,-2.30,0.61,-1.11,-105.90,-2.25,-223.35,30.6
2026/05/20 21:18:10.70,IMU,28.81,57.62,969.24,-0.09,0.27,2.32,-105.75,-1.95,-223.20,30.9
2026/05/20 21:18:10.80,IMU,41.99,50.29,967.77,-2.05,1.44,2.35,-103.65,-3.00,-222.60,31.0
2026/05/20 21:18:10.90,IMU,41.50,61.04,992.19,0.83,1.39,1.37,-107.55,-3.90,-220.35,31.1
2026/05/20 21:18:11.00,IMU,30.27,40.04,1014.65,1.24,1.25,1.07,-104.85,-3.00,-223.65,31.0
2026/05/20 21:18:11.10,IMU,13.18,68.36,982.42,-0.11,-0.44,1.53,-103.95,-2.70,-223.20,30.7
2026/05/20 21:18:11.21,IMU,29.79,75.68,1011.72,-5.33,-2.08,-1.10,-104.55,-1.95,-223.50,31.0
2026/05/20 21:18:11.31,IMU,32.71,63.96,994.63,2.05,-3.74,1.18,-104.55,-3.90,-223.20,30.9
2026/05/20 21:18:11.41,IMU,5.37,54.69,990.23,2.86,-3.20,2.89,-104.40,-1.05,-222.60,30.8
2026/05/20 21:18:11.52,IMU,17.09,42.97,985.84,-0.89,-0.99,-0.69,-103.65,-2.55,-222.60,30.9
2026/05/20 21:18:11.62,IMU,34.18,55.66,1000.49,3.25,-2.53,0.09,-103.95,-1.95,-223.50,31.0
2026/05/20 21:18:11.72,IMU,29.79,83.01,998.05,-1.31,-1.28,0.05,-103.65,-3.75,-223.35,30.7
2026/05/20 21:18:11.82,IMU,38.09,65.43,996.58,-1.69,1.69,-1.65,-105.15,-3.30,-222.30,30.8
2026/05/20 21:18:11.92,IMU,25.39,55.66,993.65,3.29,2.03,2.63,-109.35,-3.60,-219.60,31.0
2026/05/20 21:18:12.03,IMU,25.88,61.04,991.21,-0.40,-1.31,1.71,-104.85,-2.25,-223.05,31.0
2026/05/20 21:18:12.13,IMU,20.51,70.31,995.61,-0.98,0.54,1.03,-104.55,-1.95,-222.15,30.9
2026/05/20 21:18:12.23,IMU,27.83,68.36,1009.77,-1.81,2.50,-1.21,-103.50,-1.95,-221.70,30.9
2026/05/20 21:18:12.33,IMU,31.25,79.10,1011.23,0.52,1.63,0.83,-106.20,-2.55,-222.30,31.0
2026/05/20 21:18:12.43,IMU,21.00,47.85,1063.48,4.37,-3.56,1.21,-104.25,-1.95,-223.95,30.9
2026/05/20 21:18:12.53,IMU,34.67,38.57,999.02,-3.67,2.50,-2.04,-105.60,-4.50,-223.05,30.8
2026/05/20 21:18:12.65,IMU,34.18,80.57,985.35,1.68,0.69,0.24,-105.15,-2.25,-223.05,30.8
2026/05/20 21:18:12.75,IMU,36.62,91.80,976.56,-1.64,-0.05,0.52,-105.30,-1.95,-222.45,30.8
2026/05/20 21:18:12.85,IMU,21.48,63.48,994.63,1.05,-2.07,1.19,-103.20,-1.95,-222.75,30.9
2026/05/20 21:18:12.97,IMU,25.39,76.66,1004.39,-3.25,-0.44,-0.17,-108.30,-5.85,-218.40,30.7
2026/05/20 21:18:13.07,IMU,34.67,85.94,955.57,0.07,-2.70,-0.41,-102.60,-3.75,-223.05,31.0
2026/05/20 21:18:13.17,IMU,12.70,77.64,990.72,0.37,-0.06,-1.81,-105.90,-0.75,-222.30,30.5
2026/05/20 21:18:13.27,IMU,31.74,82.52,1013.67,0.47,1.85,-0.45,-104.85,-1.50,-221.85,30.7
2026/05/20 21:18:13.37,IMU,14.65,70.80,1002.44,0.51,3.47,0.89,-104.10,-2.55,-221.85,31.0
2026/05/20 21:18:13.47,IMU,15.63,83.98,1054.69,1.44,6.24,1.20,-103.20,-1.20,-221.70,30.9
2026/05/20 21:18:13.57,IMU,2.93,117.19,1009.77,4.47,10.51,0.27,-104.85,-3.75,-220.50,30.9
2026/05/20 21:18:13.67,IMU,-30.27,91.80,988.28,-8.72,6.49,0.66,-104.25,-1.95,-222.45,30.9
2026/05/20 21:18:13.77,IMU,-18.07,72.75,999.51,-6.40,9.83,-0.48,-102.75,-1.20,-221.40,30.9
2026/05/20 21:18:13.87,IMU,-47.85,59.57,1021.97,-7.20,12.15,-6.63,-102.60,-3.30,-219.45,30.6
2026/05/20 21:18:13.97,IMU,-112.30,15.14,1034.18,-7.67,6.95,-0.05,-103.35,-0.45,-220.95,30.7
2026/05/20 21:18:14.09,IMU,-144.04,79.10,1017.09,-6.76,-23.13,-2.76,-104.10,-0.75,-219.75,30.9
2026/05/20 21:18:14.19,IMU,-0.98,4.39,1035.64,-16.05,-12.11,1.89,-103.95,-2.40,-220.65,30.9
2026/05/20 21:18:14.30,IMU,31.74,8.30,997.56,-16.39,-3.05,-4.58,-105.30,-1.65,-221.70,30.8
2026/05/20 21:18:14.41,IMU,33.20,-31.74,957.52,-5.70,-3.98,-4.84,-104.40,-3.30,-221.55,30.7
2026/05/20 21:18:14.51,IMU,24.41,-32.23,933.59,-2.34,-1.76,0.20,-106.05,-3.90,-221.70,30.7
2026/05/20 21:18:14.61,IMU,0.98,-14.16,952.15,-5.69,3.50,-0.30,-105.15,-2.55,-222.30,30.9
2026/05/20 21:18:14.71,IMU,-4.39,-21.97,928.71,-17.15,7.61,5.50,-104.40,-1.80,-221.55,30.5
2026/05/20 21:18:14.81,IMU,10.25,-91.80,970.70,-12.30,7.38,3.34,-104.40,-5.25,-221.25,30.3
2026/05/20 21:18:14.91,IMU,9.77,-109.37,958.01,-0.50,5.50,0.96,-103.65,-4.05,-221.55,30.6
2026/05/20 21:18:15.05,IMU,-34.18,-142.09,1032.23,-2.31,7.63,8.41,-106.95,-7.95,-216.15,31.0
2026/05/20 21:18:15.15,IMU,-85.94,-90.82,1030.76,-1.25,-0.99,-4.24,-103.50,-3.60,-220.65,30.9
2026/05/20 21:18:15.26,IMU,-40.53,-97.17,997.07,-1.30,-2.65,-6.26,-103.20,-5.10,-220.35,30.8
2026/05/20 21:18:15.36,IMU,-44.92,-48.34,997.56,-5.95,0.78,-9.21,-103.95,-6.15,-219.90,30.5
2026/05/20 21:18:15.46,IMU,-55.18,-92.77,975.59,-11.89,-1.83,-4.61,-103.35,-4.80,-220.50,30.7
2026/05/20 21:18:15.57,IMU,-55.66,-127.93,978.52,-13.82,2.41,-7.60,-101.55,-6.00,-220.05,30.6
2026/05/20 21:18:15.66,IMU,-68.36,-142.58,970.70,-17.47,-1.62,1.47,-102.90,-6.75,-219.75,30.3
2026/05/20 21:18:15.77,IMU,-27.34,-195.31,1008.79,2.01,-3.65,10.79,-103.20,-7.65,-220.65,30.5
2026/05/20 21:18:15.87,IMU,-62.50,-194.34,981.93,9.69,-1.16,1.97,-102.15,-6.75,-220.05,30.8
2026/05/20 21:18:15.97,IMU,-59.57,-140.63,1011.23,8.64,-1.15,-1.83,-103.20,-5.40,-218.85,30.7
2026/05/20 21:18:16.07,IMU,-49.80,-120.61,991.21,1.84,-3.31,-2.35,-106.20,-7.20,-216.45,30.6
2026/05/20 21:18:16.17,IMU,-41.50,-141.60,990.23,-0.43,-3.58,2.40,-104.10,-7.95,-220.50,30.6
2026/05/20 21:18:16.27,IMU,-27.83,-137.21,992.19,-3.14,-5.24,-0.85,-102.90,-7.20,-218.70,30.7
2026/05/20 21:18:16.37,IMU,-55.18,-135.25,996.58,-0.85,-2.20,-2.25,-104.10,-6.75,-219.75,30.4
2026/05/20 21:18:16.47,IMU,-29.79,-133.30,988.77,-2.11,-1.46,4.85,-103.95,-5.40,-219.15,30.7
2026/05/20 21:18:16.57,IMU,-41.99,-140.14,985.35,-0.32,-0.15,-0.73,-103.50,-6.60,-220.35,30.6
2026/05/20 21:18:16.67,IMU,-46.39,-132.32,978.03,0.23,0.86,3.21,-103.50,-4.65,-220.65,30.6
2026/05/20 21:18:16.77,IMU,-17.09,-136.72,987.30,-0.07,3.27,0.97,-103.20,-6.60,-220.65,30.7
2026/05/20 21:18:16.87,IMU,-31.25,-154.30,997.07,-0.92,-0.08,-0.09,-104.40,-7.20,-219.00,30.6
2026/05/20 21:18:17.00,IMU,-22.46,-148.93,987.79,0.44,5.94,2.73,-103.50,-6.15,-219.90,30.7
2026/05/20 21:18:17.10,IMU,-56.64,-123.54,968.75,-2.19,-3.71,1.89,-105.30,-9.60,-218.40,30.9
2026/05/20 21:18:17.20,IMU,-44.92,-116.70,986.33,2.64,-0.53,0.87,-103.35,-3.75,-220.50,30.7
2026/05/20 21:18:17.30,IMU,-37.11,-117.68,996.58,-0.22,-0.94,-2.40,-108.60,-7.35,-214.50,30.8
2026/05/20 21:18:17.40,IMU,-2.93,-169.43,1020.51,9.63,-8.03,5.66,-103.65,-4.80,-219.75,30.3
2026/05/20 21:18:17.50,IMU,13.18,-115.23,1022.46,8.53,0.25,6.12,-104.25,-5.85,-220.65,30.6
2026/05/20 21:18:17.60,IMU,-13.67,-91.80,1003.91,6.05,11.62,14.40,-102.90,-5.55,-221.85,30.8
2026/05/20 21:18:17.70,IMU,-224.61,-12.70,831.05,10.24,-1.29,18.84,-102.75,-6.15,-219.60,30.7
2026/05/20 21:18:17.80,IMU,-4.88,-39.55,975.10,17.66,-23.40,33.49,-104.55,-5.85,-219.60,30.6
2026/05/20 21:18:17.90,IMU,39.55,38.09,1016.11,41.89,-7.84,25.89,-104.55,-6.15,-220.95,30.6
2026/05/20 21:18:18.00,IMU,-17.09,168.95,1038.57,13.82,-2.60,23.53,-105.15,-6.00,-220.50,30.6
2026/05/20 21:18:18.14,IMU,-117.19,73.73,944.34,5.14,22.62,31.84,-104.40,-8.70,-218.25,30.7
2026/05/20 21:18:18.24,IMU,-72.27,146.00,1012.21,15.23,-2.96,36.36,-104.10,-7.20,-219.75,30.7
2026/05/20 21:18:18.34,IMU,-0.98,74.22,990.72,-6.25,-2.47,55.15,-103.35,-9.00,-219.00,30.8
2026/05/20 21:18:18.45,IMU,-26.37,95.21,960.94,3.73,11.46,7.11,-102.60,-9.75,-219.75,30.6
2026/05/20 21:18:18.55,IMU,-26.37,74.22,928.22,-5.55,0.34,2.85,-103.20,-9.30,-219.60,30.5
2026/05/20 21:18:18.65,IMU,-58.11,134.77,963.38,-5.79,5.68,-11.13,-104.10,-8.25,-220.80,30.7
2026/05/20 21:18:18.77,IMU,-62.99,157.23,976.56,0.86,-6.69,2.08,-102.45,-8.85,-219.15,30.8
2026/05/20 21:18:18.87,IMU,-29.30,167.48,1001.46,-3.47,-15.38,8.87,-104.40,-9.75,-220.80,30.6
2026/05/20 21:18:18.97,IMU,31.74,104.00,1001.46,-12.17,-7.73,7.24,-103.35,-9.45,-221.55,30.8
2026/05/20 21:18:19.07,IMU,-19.04,107.91,1000.49,-6.82,12.10,-10.02,-104.25,-9.30,-220.95,30.8
2026/05/20 21:18:19.17,IMU,-51.27,100.59,1011.23,-6.28,4.02,0.45,-107.55,-10.80,-216.30,30.7
2026/05/20 21:18:19.27,IMU,-41.99,59.57,985.35,-1.25,-5.61,6.38,-104.40,-8.70,-220.50,30.9
2026/05/20 21:18:19.37,IMU,-11.72,53.22,1003.42,2.21,-0.60,4.85,-106.65,-12.15,-221.25,30.8
2026/05/20 21:18:19.47,IMU,-23.44,46.88,1045.90,9.34,-1.68,5.68,-105.00,-9.60,-220.95,30.9
2026/05/20 21:18:19.60,IMU,-9.28,109.86,993.65,-3.86,1.47,2.46,-103.20,-8.85,-219.90,30.7
2026/05/20 21:18:19.70,IMU,17.58,58.11,1054.20,4.95,-2.05,7.11,-104.10,-9.00,-220.50,30.8
2026/05/20 21:18:19.80,IMU,-1.95,164.06,1050.29,10.00,-0.45,7.18,-103.95,-8.85,-219.60,30.6
2026/05/20 21:18:19.90,IMU,-41.50,154.79,1009.28,-11.10,-3.31,1.31,-103.20,-8.85,-220.35,30.7
2026/05/20 21:18:20.00,IMU,-47.36,114.75,1040.04,12.17,-3.82,39.18,-105.60,-9.45,-220.50,30.7
2026/05/20 21:18:20.10,IMU,134.28,107.91,900.39,31.60,-6.85,22.99,-105.15,-9.45,-221.55,30.7
2026/05/20 21:18:20.20,IMU,-25.88,226.56,942.38,-10.66,6.42,1.85,-106.95,-12.15,-215.40,31.0
2026/05/20 21:18:20.30,IMU,-8.30,144.04,931.64,-6.24,11.32,-11.09,-105.60,-8.70,-220.80,30.9
2026/05/20 21:18:20.40,IMU,-49.32,108.89,987.30,-9.92,8.36,3.15,-104.25,-9.60,-219.15,30.5
2026/05/20 21:18:20.50,IMU,-21.97,131.35,932.62,-2.34,6.18,-1.96,-103.65,-10.20,-220.05,30.5
2026/05/20 21:18:20.60,IMU,-7.32,100.59,934.08,-13.65,-1.44,3.53,-103.65,-10.50,-220.05,30.7
2026/05/20 21:18:20.70,IMU,-35.16,60.06,983.40,-6.19,-1.15,8.44,-103.50,-11.85,-219.90,30.7
2026/05/20 21:18:20.81,IMU,-15.14,62.01,996.58,-1.14,2.11,3.51,-102.75,-10.35,-219.60,30.7
2026/05/20 21:18:20.91,IMU,-12.21,107.91,969.24,-3.53,-0.92,9.95,-103.65,-13.20,-219.45,30.7
2026/05/20 21:18:21.01,IMU,-17.58,50.78,1013.18,-4.85,1.63,13.36,-103.20,-12.30,-220.35,30.4
2026/05/20 21:18:21.11,IMU,-12.21,79.59,1001.95,-1.02,-0.79,11.79,-105.60,-12.45,-221.25,30.3
2026/05/20 21:18:21.22,IMU,-5.86,13.18,1005.86,-13.53,-3.10,6.38,-106.95,-15.90,-218.25,30.7
2026/05/20 21:18:21.32,IMU,29.79,67.38,1035.64,3.90,0.80,9.63,-103.95,-16.05,-220.65,30.5
2026/05/20 21:18:21.42,IMU,-31.25,59.57,994.63,2.23,-2.92,-2.53,-103.20,-14.10,-220.35,30.6
2026/05/20 21:18:21.52,IMU,2.93,80.57,976.56,-2.41,-1.53,3.51,-103.50,-13.80,-220.95,30.7
2026/05/20 21:18:21.62,IMU,-4.88,61.52,993.16,-4.59,-2.42,1.21,-103.20,-14.85,-222.15,30.4
2026/05/20 21:18:21.72,IMU,20.51,31.25,986.33,-4.69,-1.54,-1.74,-103.95,-13.80,-221.70,30.6
2026/05/20 21:18:21.82,IMU,20.02,20.51,989.75,3.05,1.04,-3.08,-104.25,-14.55,-219.90,30.3
2026/05/20 21:18:21.92,IMU,16.11,62.99,1003.42,-2.36,3.06,0.36,-104.55,-14.55,-220.95,30.3
2026/05/20 21:18:22.02,IMU,15.63,54.20,998.54,-7.01,0.11,2.68,-105.00,-14.10,-220.95,30.5
2026/05/20 21:18:22.12,IMU,22.46,17.58,994.14,-2.12,1.75,1.60,-104.55,-14.10,-220.95,30.7
2026/05/20 21:18:22.22,IMU,11.23,36.13,967.77,-2.53,1.21,1.39,-103.20,-13.80,-222.15,30.7
2026/05/20 21:18:22.32,IMU,4.88,32.71,993.16,-2.30,2.12,-2.72,-103.50,-16.05,-221.40,30.5
2026/05/20 21:18:22.45,IMU,7.32,52.25,1000.49,-0.21,2.08,5.11,-102.90,-13.65,-220.50,30.5
2026/05/20 21:18:22.55,IMU,15.63,35.16,989.26,-0.84,-0.25,2.53,-103.20,-14.55,-221.40,30.4
2026/05/20 21:18:22.65,IMU,14.65,40.53,987.79,0.30,1.74,2.66,-103.95,-14.85,-220.95,30.4
2026/05/20 21:18:22.75,IMU,9.28,40.53,981.93,0.18,0.76,5.96,-103.65,-16.20,-221.25,30.5
2026/05/20 21:18:22.85,IMU,-5.37,44.43,996.58,2.11,0.80,1.95,-103.20,-14.55,-221.70,30.5
2026/05/20 21:18:22.95,IMU,14.65,47.36,980.47,-0.88,0.34,5.89,-102.75,-14.10,-222.15,30.5
2026/05/20 21:18:23.05,IMU,-1.46,48.83,989.75,-0.16,-0.99,2.62,-108.45,-15.90,-215.10,30.4
2026/05/20 21:18:23.15,IMU,9.28,46.39,979.98,-1.36,1.83,1.51,-102.75,-15.30,-220.65,30.6
2026/05/20 21:18:23.26,IMU,6.35,41.99,980.47,-3.02,-0.52,3.97,-102.90,-14.70,-221.55,30.4
2026/05/20 21:18:23.36,IMU,5.37,52.73,1002.93,-0.25,0.79,3.79,-102.60,-15.45,-221.25,30.3
2026/05/20 21:18:23.46,IMU,18.55,46.88,998.05,-2.24,1.31,3.04,-102.60,-15.45,-220.50,30.2
2026/05/20 21:18:23.56,IMU,19.04,27.34,995.61,-0.24,0.55,3.59,-103.35,-16.20,-220.80,30.6
2026/05/20 21:18:23.66,IMU,7.32,30.76,983.89,-1.37,-1.81,4.37,-102.75,-14.55,-220.65,30.6
2026/05/20 21:18:23.76,IMU,0.00,54.69,1000.00,-1.51,0.48,8.74,-103.20,-15.75,-221.40,30.1
2026/05/20 21:18:23.86,IMU,34.18,26.37,1012.70,10.13,4.12,7.73,-102.90,-16.95,-220.05,30.3
2026/05/20 21:18:23.96,IMU,-1.95,110.35,1019.53,32.04,7.98,9.21,-102.90,-15.45,-220.80,30.3
2026/05/20 21:18:24.06,IMU,-46.88,161.62,982.91,-2.45,6.56,3.11,-101.55,-13.95,-219.75,30.6
2026/05/20 21:18:24.18,IMU,-37.60,97.66,961.91,-23.80,-0.50,15.11,-103.20,-14.85,-218.85,30.6
2026/05/20 21:18:24.28,IMU,34.67,48.34,994.63,-6.17,-6.86,20.16,-102.00,-16.05,-219.90,30.5
2026/05/20 21:18:24.38,IMU,-17.58,79.10,961.43,-10.61,5.83,-2.72,-101.70,-18.00,-219.90,30.5
2026/05/20 21:18:24.49,IMU,29.79,25.88,967.29,-7.61,3.82,4.02,-103.65,-18.90,-216.45,30.6
2026/05/20 21:18:24.59,IMU,21.97,23.44,965.82,-3.85,-1.10,0.24,-100.95,-17.55,-219.90,30.3
2026/05/20 21:18:24.69,IMU,26.37,19.53,981.45,-3.81,-1.43,1.67,-100.95,-18.00,-220.65,30.3
2026/05/20 21:18:24.79,IMU,-6.84,46.88,974.61,0.38,-2.57,6.51,-101.55,-17.40,-219.45,30.4
2026/05/20 21:18:24.89,IMU,17.09,0.49,979.00,-0.84,-3.07,2.40,-101.25,-16.80,-219.60,30.5
2026/05/20 21:18:24.99,IMU,-18.07,-10.74,1024.41,5.11,5.08,2.58,-101.25,-19.05,-219.15,30.3
2026/05/20 21:18:25.09,IMU,-63.48,24.41,1061.52,5.81,1.23,4.21,-100.80,-16.20,-219.75,30.3
2026/05/20 21:18:25.19,IMU,-14.16,0.00,974.12,-11.79,-1.00,-5.23,-100.50,-17.25,-218.85,30.2
2026/05/20 21:18:25.31,IMU,-24.41,22.95,988.28,-3.92,-2.21,-0.31,-100.05,-17.40,-219.00,30.3
2026/05/20 21:18:25.41,IMU,5.86,1.46,976.56,-6.23,-2.89,-1.36,-101.25,-16.80,-219.90,30.4
2026/05/20 21:18:25.51,IMU,3.42,14.16,968.75,0.50,-1.36,7.94,-100.20,-17.55,-219.15,30.3
2026/05/20 21:18:25.61,IMU,-17.09,-5.86,989.26,2.50,2.96,2.14,-101.10,-18.60,-219.75,30.4
2026/05/20 21:18:25.71,IMU,-33.69,-4.39,1014.16,1.24,-0.41,-3.72,-101.10,-16.65,-219.45,30.4
2026/05/20 21:18:25.81,IMU,-25.39,-22.46,979.98,-11.81,2.33,-4.58,-100.80,-16.95,-219.45,30.5
2026/05/20 21:18:25.91,IMU,-6.35,-65.92,993.65,-3.79,0.53,3.23,-100.35,-17.70,-219.00,30.2
2026/05/20 21:18:26.01,IMU,-13.67,-66.41,1019.04,-8.19,-4.60,5.32,-101.55,-19.35,-218.25,30.5
2026/05/20 21:18:26.11,IMU,25.39,-54.20,1013.18,-13.05,-2.67,3.85,-101.10,-19.35,-218.25,30.5
2026/05/20 21:18:26.22,IMU,0.98,-53.22,1040.04,-0.43,-3.37,-0.73,-100.35,-20.40,-216.45,30.3
2026/05/20 21:18:26.32,IMU,0.00,54.69,979.98,-1.27,3.34,10.60,-101.55,-16.95,-220.50,30.5
2026/05/20 21:18:26.42,IMU,22.95,39.06,984.38,4.78,-2.51,5.76,-99.90,-19.80,-218.40,30.5
2026/05/20 21:18:26.52,IMU,18.07,24.41,993.16,10.34,2.65,8.31,-101.70,-19.05,-219.15,30.5
2026/05/20 21:18:26.62,IMU,-2.44,44.92,979.49,-3.70,0.24,-1.60,-100.80,-20.10,-219.00,30.6
2026/05/20 21:18:26.72,IMU,21.97,29.30,976.56,2.11,-1.28,5.50,-101.70,-18.30,-218.40,30.5
2026/05/20 21:18:26.82,IMU,41.50,14.65,1006.84,1.32,-2.84,1.08,-101.55,-19.65,-219.45,30.6
2026/05/20 21:18:26.92,IMU,31.25,32.23,1006.84,-6.09,1.87,-6.97,-101.10,-18.60,-219.75,30.4
2026/05/20 21:18:27.02,IMU,36.13,-22.46,1027.83,-6.53,-1.02,2.40,-102.60,-19.35,-219.00,30.3
2026/05/20 21:18:27.12,IMU,26.86,8.30,986.33,-4.81,-3.57,-2.65,-101.25,-18.30,-217.80,30.4
2026/05/20 21:18:27.22,IMU,5.86,4.88,973.63,3.01,-1.42,1.42,-102.75,-17.55,-217.35,30.3
2026/05/20 21:18:27.32,IMU,4.88,9.77,979.49,-5.01,-3.28,-0.22,-102.15,-19.35,-219.75,30.4
2026/05/20 21:18:27.42,IMU,-3.91,-13.18,968.75,2.66,-5.05,0.61,-103.35,-18.90,-217.50,30.3
2026/05/20 21:18:27.53,IMU,-0.98,-10.25,996.09,11.04,3.53,-2.89,-102.45,-18.30,-219.60,30.3
2026/05/20 21:18:27.64,IMU,-21.97,-23.44,976.56,6.36,3.51,-10.83,-102.60,-18.15,-217.20,30.4
2026/05/20 21:18:27.74,IMU,6.35,-92.29,936.52,-15.69,-7.85,-3.35,-103.20,-16.05,-218.85,30.1
2026/05/20 21:18:27.84,IMU,56.15,-69.34,900.39,2.31,0.27,-3.46,-102.75,-17.55,-219.15,30.4
2026/05/20 21:18:27.94,IMU,56.15,-93.26,993.16,12.46,3.89,0.45,-102.15,-18.15,-218.70,30.2
2026/05/20 21:18:28.04,IMU,-34.67,-75.20,979.49,1.56,-2.47,1.08,-102.60,-17.40,-217.20,30.1
2026/05/20 21:18:28.14,IMU,81.54,-84.47,957.03,-3.02,-5.38,14.63,-103.65,-16.20,-217.95,30.2
2026/05/20 21:18:28.24,IMU,105.47,-71.78,1067.38,-5.22,7.05,17.32,-103.50,-19.05,-217.80,30.1
2026/05/20 21:18:28.34,IMU,113.28,27.34,1121.09,23.48,3.66,20.69,-102.90,-16.65,-217.80,29.9
2026/05/20 21:18:28.44,IMU,144.53,190.92,1021.48,-17.28,-5.79,0.46,-100.80,-18.15,-216.90,30.3
2026/05/20 21:18:28.54,IMU,48.34,50.78,1016.11,14.82,-1.69,-4.26,-101.10,-17.40,-217.20,30.4
2026/05/20 21:18:28.64,IMU,59.57,86.91,1018.55,16.93,36.79,18.11,-100.80,-17.40,-216.45,30.3
2026/05/20 21:18:28.74,IMU,-83.50,112.79,885.25,4.15,60.74,-25.27,-97.05,-15.15,-212.85,30.2
2026/05/20 21:18:28.85,IMU,-126.46,19.04,913.57,5.88,-12.87,-14.96,-97.05,-16.65,-212.85,30.2
2026/05/20 21:18:28.95,IMU,178.71,84.47,1267.58,-17.08,-37.68,13.92,-98.40,-12.60,-214.20,30.3
2026/05/20 21:18:29.05,IMU,41.99,14.16,1017.09,-23.04,-18.44,24.63,-100.35,-15.90,-213.90,30.2
2026/05/20 21:18:29.15,IMU,-102.54,46.39,1062.99,18.04,0.58,62.85,-98.85,-19.35,-213.30,30.3
2026/05/20 21:18:29.25,IMU,-41.50,114.26,965.33,-8.29,-22.31,27.21,-98.85,-16.65,-215.70,30.3
2026/05/20 21:18:29.37,IMU,-69.82,-5.37,1014.16,-0.89,-2.73,4.42,-101.10,-18.60,-215.70,29.8
2026/05/20 21:18:29.47,IMU,-21.00,-42.97,981.45,10.08,-2.16,-16.56,-100.80,-18.90,-215.70,30.3
2026/05/20 21:18:29.57,IMU,98.14,-21.97,930.18,3.12,-3.97,-0.12,-102.15,-18.15,-215.10,30.3
2026/05/20 21:18:29.67,IMU,134.77,18.55,1033.20,-3.63,1.78,12.34,-103.95,-17.25,-213.00,29.9
2026/05/20 21:18:29.77,IMU,172.85,56.15,1110.84,-5.30,12.60,28.95,-100.05,-17.70,-215.70,30.3
2026/05/20 21:18:29.87,IMU,43.46,167.97,991.70,1.09,26.22,41.27,-98.40,-17.55,-214.50,30.3
2026/05/20 21:18:29.97,IMU,130.37,52.25,932.62,-13.13,13.78,45.67,-98.85,-21.15,-214.35,30.3
2026/05/20 21:18:30.07,IMU,64.94,-49.32,946.78,-9.91,4.85,24.90,-96.00,-19.65,-214.65,30.0
2026/05/20 21:18:30.18,IMU,61.04,-21.48,961.91,-1.03,4.27,20.02,-95.85,-21.45,-214.20,29.9
2026/05/20 21:18:30.28,IMU,49.32,36.62,1021.00,-7.97,-5.42,6.19,-96.00,-22.65,-214.65,30.3
2026/05/20 21:18:30.38,IMU,-8.79,-8.30,1064.94,-19.74,10.71,-3.02,-96.00,-23.40,-214.65,30.4
2026/05/20 21:18:30.48,IMU,-59.57,-13.67,1107.91,-6.18,2.95,17.19,-96.15,-24.00,-214.50,30.4
2026/05/20 21:18:30.58,IMU,-44.92,-34.67,996.58,18.75,-7.99,-11.66,-96.30,-24.30,-213.90,30.1
2026/05/20 21:18:30.68,IMU,1.46,73.73,954.59,1.65,6.83,-2.60,-95.40,-23.70,-213.45,30.2
2026/05/20 21:18:30.81,IMU,-79.10,-63.48,937.01,6.62,8.49,-13.15,-93.75,-22.35,-213.90,30.3
2026/05/20 21:18:30.91,IMU,-86.43,-66.89,933.11,-2.82,9.11,-5.77,-94.80,-21.90,-214.35,30.2
2026/05/20 21:18:31.01,IMU,-65.92,3.42,1060.06,-13.64,3.69,0.66,-94.20,-21.60,-213.60,30.2
2026/05/20 21:18:31.11,IMU,-59.57,-45.41,1232.42,10.15,-13.94,21.57,-96.15,-25.20,-213.00,30.1
2026/05/20 21:18:31.21,IMU,41.99,95.70,1035.16,18.49,-12.48,23.98,-94.80,-22.35,-212.55,30.3
2026/05/20 21:18:31.31,IMU,99.61,125.98,991.21,-0.94,2.00,11.65,-97.05,-23.10,-212.85,30.3
2026/05/20 21:18:31.41,IMU,35.16,7.81,975.59,8.20,8.24,18.26,-94.35,-21.45,-213.00,30.3
2026/05/20 21:18:31.51,IMU,14.65,-1.95,945.31,24.57,-3.49,29.70,-92.10,-22.95,-211.95,30.1
2026/05/20 21:18:31.61,IMU,80.57,82.52,969.24,39.35,-11.76,36.55,-93.75,-21.15,-211.80,30.3
2026/05/20 21:18:31.71,IMU,-15.14,199.71,998.54,-0.03,3.02,6.39,-93.45,-19.65,-210.75,30.2
2026/05/20 21:18:31.81,IMU,3.42,97.17,1000.49,-26.69,8.15,2.22,-92.70,-20.85,-211.05,30.4
2026/05/20 21:18:31.93,IMU,-38.57,126.95,956.54,-2.28,3.68,15.68,-91.20,-23.10,-210.00,30.3
2026/05/20 21:18:32.03,IMU,-8.30,55.18,964.84,-13.38,-3.44,23.13,-91.20,-24.30,-211.80,30.4
2026/05/20 21:18:32.13,IMU,45.90,83.50,997.56,9.13,-9.37,26.84,-90.75,-23.40,-212.85,30.1
2026/05/20 21:18:32.24,IMU,3.42,106.45,989.75,-3.44,-4.01,5.67,-90.75,-23.40,-212.55,30.4
2026/05/20 21:18:32.34,IMU,33.20,70.80,971.19,-1.76,-1.01,11.46,-90.30,-24.00,-211.20,30.3
2026/05/20 21:18:32.44,IMU,8.79,51.27,990.72,4.89,-0.09,15.28,-91.80,-24.00,-210.90,30.5
2026/05/20 21:18:32.54,IMU,-8.30,8.30,989.75,1.46,-2.11,9.21,-96.45,-25.20,-206.55,30.4
2026/05/20 21:18:32.64,IMU,-26.86,8.30,958.98,4.26,2.96,-2.66,-92.40,-23.25,-213.00,30.1
2026/05/20 21:18:32.74,IMU,11.72,12.70,1013.18,-5.33,2.27,11.76,-90.15,-23.10,-211.50,29.8
2026/05/20 21:18:32.84,IMU,27.83,35.16,1011.72,-9.78,3.08,9.24,-90.30,-24.45,-211.95,30.2
2026/05/20 21:18:32.94,IMU,38.09,38.57,1073.73,3.69,0.78,7.78,-89.70,-23.40,-211.80,30.3
2026/05/20 21:18:33.04,IMU,76.66,45.90,972.17,4.60,8.28,0.42,-90.75,-25.35,-210.75,30.3
2026/05/20 21:18:33.14,IMU,46.88,29.30,965.82,-1.92,2.00,13.77,-88.65,-25.80,-211.50,30.3
2026/05/20 21:18:33.25,IMU,78.12,26.86,953.61,5.13,-4.79,12.77,-87.75,-24.75,-211.95,30.2
2026/05/20 21:18:33.38,IMU,42.48,14.16,972.17,0.79,-5.93,5.67,-89.70,-24.60,-211.05,30.3
2026/05/20 21:18:33.48,IMU,60.06,-5.86,970.21,9.05,-3.36,4.69,-89.40,-23.40,-211.05,30.5
2026/05/20 21:18:33.58,IMU,56.64,11.72,1004.39,8.47,4.82,-3.24,-89.10,-23.70,-210.60,30.2
2026/05/20 21:18:33.68,IMU,53.22,10.74,995.61,-2.41,5.89,-2.57,-89.10,-22.95,-210.15,30.3
2026/05/20 21:18:33.79,IMU,77.64,51.27,1043.46,-8.04,5.75,3.94,-89.10,-22.50,-211.95,30.1
2026/05/20 21:18:33.89,IMU,60.06,-51.76,1129.39,-8.90,3.57,5.84,-87.30,-23.25,-210.90,30.5
2026/05/20 21:18:33.99,IMU,31.25,114.75,965.33,3.59,3.53,13.92,-88.80,-26.25,-208.80,30.0
2026/05/20 21:18:34.09,IMU,-9.28,77.15,949.22,-9.24,-2.57,-8.85,-86.55,-24.00,-211.20,30.1
2026/05/20 21:18:34.19,IMU,26.37,28.32,993.16,4.15,-7.23,16.34,-87.00,-23.70,-210.90,30.3
2026/05/20 21:18:34.29,IMU,5.86,16.60,974.12,-4.47,-2.16,-3.52,-87.90,-26.10,-211.80,30.3
2026/05/20 21:18:34.39,IMU,19.53,0.00,966.80,5.41,-0.51,9.59,-89.70,-23.85,-213.30,30.5
2026/05/20 21:18:34.49,IMU,-4.39,17.09,982.42,-2.91,5.57,3.58,-87.45,-26.10,-211.05,30.2
2026/05/20 21:18:34.59,IMU,-5.86,41.02,1011.72,-3.73,3.65,9.90,-88.80,-25.95,-210.15,30.3
2026/05/20 21:18:34.69,IMU,-32.71,-18.55,1154.79,-2.31,0.69,10.52,-87.15,-25.80,-211.80,30.3
2026/05/20 21:18:34.81,IMU,121.58,70.31,1016.60,4.55,2.11,9.54,-87.45,-25.35,-211.80,30.5
2026/05/20 21:18:34.91,IMU,56.15,59.57,880.86,-9.82,6.02,4.01,-86.10,-26.10,-212.55,30.6
2026/05/20 21:18:35.01,IMU,55.66,-5.86,943.36,-1.68,-2.19,14.22,-86.10,-26.10,-210.75,30.4
2026/05/20 21:18:35.11,IMU,40.04,-12.70,931.64,9.63,3.24,3.85,-86.40,-27.30,-212.10,30.3
2026/05/20 21:18:35.21,IMU,24.90,-11.72,972.66,1.89,-5.05,4.47,-85.65,-25.80,-211.50,30.1
2026/05/20 21:18:35.32,IMU,55.18,-20.02,1025.88,-2.03,2.68,3.73,-86.55,-26.70,-211.20,30.5
2026/05/20 21:18:35.42,IMU,43.46,-7.81,1037.11,-5.76,5.77,1.32,-86.70,-28.35,-209.70,30.3
2026/05/20 21:18:35.52,IMU,-33.20,-57.62,1128.91,-8.82,4.96,7.52,-85.05,-27.90,-210.60,30.5
2026/05/20 21:18:35.62,IMU,-1.46,64.45,994.63,-4.12,10.36,5.02,-84.75,-25.95,-211.20,30.3
2026/05/20 21:18:35.72,IMU,-51.76,17.58,950.20,-11.85,-3.79,-2.71,-82.95,-27.00,-211.65,30.4
2026/05/20 21:18:35.82,IMU,0.00,0.00,993.16,2.89,-9.87,13.36,-82.95,-26.25,-210.90,30.5
2026/05/20 21:18:35.94,IMU,-3.42,-36.13,944.34,-0.19,-1.40,-3.68,-84.15,-26.85,-213.30,30.3
2026/05/20 21:18:36.04,IMU,-17.58,-56.15,972.66,0.35,-1.37,14.46,-82.35,-26.55,-210.30,30.4
2026/05/20 21:18:36.14,IMU,-3.91,-61.52,1000.49,-1.20,-2.73,16.40,-83.10,-26.85,-213.90,30.4
2026/05/20 21:18:36.25,IMU,22.46,5.86,1047.85,-2.34,1.57,17.87,-82.35,-27.30,-211.80,30.5
2026/05/20 21:18:36.35,IMU,-34.67,1.46,1135.25,10.44,2.09,32.28,-79.95,-26.70,-213.45,30.5
2026/05/20 21:18:36.45,IMU,42.97,-12.21,956.54,-4.99,5.78,-0.05,-81.00,-25.50,-212.40,30.7
2026/05/20 21:18:36.56,IMU,23.44,-3.42,989.26,8.05,-6.98,2.19,-80.10,-26.10,-211.80,30.6
2026/05/20 21:18:36.66,IMU,72.27,36.13,960.45,-0.15,-5.78,2.39,-81.00,-27.00,-213.00,30.3
2026/05/20 21:18:36.76,IMU,59.08,-76.17,980.47,-3.50,0.18,2.11,-80.55,-26.85,-211.80,30.5
2026/05/20 21:18:36.86,IMU,40.53,-71.29,972.66,-1.70,2.59,-4.82,-83.70,-30.15,-206.85,30.5
2026/05/20 21:18:36.96,IMU,2.44,-73.24,1007.81,1.92,10.43,-4.79,-80.10,-26.85,-212.85,30.5
2026/05/20 21:18:37.06,IMU,4.88,-63.48,1127.44,-6.37,7.09,1.92,-79.65,-27.45,-212.40,30.4
2026/05/20 21:18:37.16,IMU,26.86,-35.64,1030.27,-4.42,13.40,21.10,-79.80,-27.30,-214.65,30.5
2026/05/20 21:18:37.26,IMU,-78.12,-9.28,991.70,-6.68,7.10,15.24,-78.00,-26.85,-213.90,30.5
2026/05/20 21:18:37.36,IMU,-48.34,-62.01,976.56,-1.23,-6.60,22.02,-77.25,-27.30,-214.35,30.5
2026/05/20 21:18:37.46,IMU,-10.74,-39.55,983.89,-0.79,-8.13,17.66,-76.65,-27.00,-214.50,30.3
2026/05/20 21:18:37.56,IMU,-31.74,-80.57,962.89,0.07,-5.47,19.62,-76.50,-26.55,-215.40,30.4
2026/05/20 21:18:37.68,IMU,-17.09,-60.55,980.96,-2.46,1.18,27.12,-75.90,-26.70,-214.20,30.4
2026/05/20 21:18:37.78,IMU,-48.34,-139.16,1002.44,-5.40,1.86,26.44,-75.15,-25.20,-212.70,30.5
2026/05/20 21:18:37.88,IMU,32.71,-71.78,1078.13,-10.43,11.85,43.78,-74.10,-24.45,-214.80,30.2
2026/05/20 21:18:37.99,IMU,-46.88,-42.97,1079.59,6.81,0.66,47.82,-73.35,-23.70,-216.00,30.6
2026/05/20 21:18:38.09,IMU,40.53,-86.43,976.56,7.24,-12.05,36.55,-73.35,-23.70,-215.55,30.6
2026/05/20 21:18:38.19,IMU,60.55,-15.14,958.01,10.53,-5.50,21.30,-71.70,-21.90,-213.90,30.4
2026/05/20 21:18:38.29,IMU,29.30,-60.55,952.15,7.10,1.68,22.02,-70.65,-20.40,-213.90,30.4
2026/05/20 21:18:38.39,IMU,16.11,-51.76,953.61,1.90,4.72,12.96,-70.95,-19.65,-213.30,30.3
2026/05/20 21:18:38.49,IMU,17.09,-83.50,992.19,1.30,1.82,9.33,-71.55,-19.05,-212.70,30.3
2026/05/20 21:18:38.59,IMU,31.74,-70.31,1069.82,-6.21,5.79,19.76,-69.30,-20.25,-212.70,30.2
2026/05/20 21:18:38.69,IMU,-1.95,-57.62,1084.47,11.92,1.02,26.21,-70.05,-18.75,-215.55,30.3
2026/05/20 21:18:38.80,IMU,-45.41,17.09,951.17,-2.16,1.75,0.87,-69.45,-18.15,-213.30,30.3
2026/05/20 21:18:38.90,IMU,-11.72,-5.37,1010.74,9.84,-11.86,26.32,-70.95,-17.40,-213.90,30.3
2026/05/20 21:18:39.00,IMU,5.37,17.09,1007.32,-8.83,-2.85,16.88,-70.20,-16.65,-211.50,30.3
2026/05/20 21:18:39.12,IMU,16.11,-170.41,933.11,6.21,-2.25,9.94,-70.35,-17.25,-212.70,30.3
2026/05/20 21:18:39.22,IMU,-41.50,-44.92,983.89,10.20,8.14,15.15,-70.95,-15.45,-212.10,30.3
2026/05/20 21:18:39.32,IMU,-6.35,19.53,1021.97,5.29,3.89,16.74,-69.60,-15.75,-213.45,30.5
2026/05/20 21:18:39.43,IMU,-94.73,-35.64,1063.48,-2.18,2.47,32.42,-69.45,-13.95,-212.55,29.9
2026/05/20 21:18:39.53,IMU,-19.53,78.61,1007.81,-10.09,-13.31,17.06,-69.60,-14.10,-211.65,30.5
2026/05/20 21:18:39.63,IMU,73.24,18.07,964.36,7.72,-8.67,10.91,-68.85,-12.60,-212.40,30.2
2026/05/20 21:18:39.73,IMU,49.32,74.22,956.05,-0.58,1.60,-0.89,-70.65,-12.90,-211.80,30.1
2026/05/20 21:18:39.83,IMU,26.86,-0.49,972.17,-4.23,-7.69,11.19,-69.15,-11.70,-211.50,30.5
2026/05/20 21:18:39.93,IMU,81.54,-38.09,979.00,-2.21,-1.23,3.39,-70.20,-13.65,-210.00,30.5
2026/05/20 21:18:40.03,IMU,14.65,-17.58,1024.90,-0.09,5.87,-4.80,-70.20,-11.70,-211.05,30.5
2026/05/20 21:18:40.13,IMU,-7.32,17.09,1065.92,-7.52,5.73,-6.39,-70.80,-12.60,-211.65,30.3
2026/05/20 21:18:40.23,IMU,22.46,-0.98,1039.06,4.69,3.27,4.34,-70.05,-13.05,-211.65,30.3
2026/05/20 21:18:40.33,IMU,0.00,40.53,968.75,2.82,-8.60,-7.79,-68.85,-13.05,-210.15,30.4
2026/05/20 21:18:40.43,IMU,-17.09,51.76,979.98,7.96,-1.37,-9.53,-70.80,-12.60,-210.60,30.4
2026/05/20 21:18:40.57,IMU,-14.65,16.11,944.82,-12.43,-6.42,-2.22,-72.60,-13.80,-210.60,30.5
2026/05/20 21:18:40.67,IMU,15.63,-23.93,976.07,2.37,-5.35,3.90,-71.85,-14.10,-210.60,30.6
2026/05/20 21:18:40.77,IMU,32.23,43.95,1016.11,5.22,-4.60,4.18,-70.95,-12.90,-211.80,30.3
2026/05/20 21:18:40.87,IMU,83.01,68.36,1015.63,-10.45,11.55,8.18,-70.95,-13.20,-211.05,30.5
2026/05/20 21:18:40.97,IMU,8.79,-33.69,1054.69,6.53,12.50,14.21,-71.55,-13.35,-209.85,30.3
2026/05/20 21:18:41.07,IMU,86.91,19.04,1010.74,5.11,5.45,4.69,-70.80,-11.55,-211.20,30.2
2026/05/20 21:18:41.17,IMU,72.27,-37.60,948.73,1.47,-0.22,4.65,-73.20,-15.15,-207.45,30.3
2026/05/20 21:18:41.27,IMU,47.85,-51.76,981.93,-5.31,-14.69,18.41,-71.10,-11.85,-211.65,30.6
2026/05/20 21:18:41.37,IMU,83.01,-88.87,963.87,5.34,-4.74,14.37,-71.85,-11.85,-210.15,30.4
2026/05/20 21:18:41.47,IMU,77.15,-30.76,991.70,1.04,-2.05,6.04,-71.55,-11.10,-210.15,30.5
2026/05/20 21:18:41.57,IMU,35.16,-125.00,1018.07,-5.68,13.58,12.97,-71.25,-10.50,-209.70,30.4
2026/05/20 21:18:41.67,IMU,-2.44,-61.04,1036.62,-2.14,12.17,26.82,-71.25,-12.15,-211.05,30.6
2026/05/20 21:18:41.78,IMU,-36.62,-94.73,1128.91,-3.47,6.01,15.31,-73.20,-12.90,-207.90,30.7
2026/05/20 21:18:41.88,IMU,13.67,32.23,1039.06,0.66,8.60,0.89,-68.85,-11.55,-211.65,30.5
2026/05/20 21:18:41.98,IMU,-74.71,-0.49,911.13,4.98,0.02,20.87,-67.95,-11.70,-210.30,30.5
2026/05/20 21:18:42.08,IMU,-108.40,-23.93,976.07,-11.61,-10.05,40.34,-69.45,-9.75,-210.75,30.5
2026/05/20 21:18:42.18,IMU,5.37,27.83,880.37,21.95,11.11,19.40,-69.30,-8.40,-211.20,30.5
2026/05/20 21:18:42.30,IMU,-20.51,-44.92,1032.71,-14.48,14.57,16.80,-68.25,-6.60,-210.60,30.5
2026/05/20 21:18:42.40,IMU,-41.02,32.71,1106.93,-39.21,-2.42,39.52,-66.00,-8.40,-211.20,30.5
2026/05/20 21:18:42.50,IMU,78.61,-97.66,1130.86,6.57,2.95,46.98,-67.20,-7.20,-211.05,30.6
2026/05/20 21:18:42.60,IMU,4.88,-60.55,996.09,27.92,2.77,4.92,-67.20,-7.50,-211.05,30.3
2026/05/20 21:18:42.70,IMU,47.85,21.00,940.92,14.97,10.59,4.61,-66.00,-4.35,-212.40,30.6
2026/05/20 21:18:42.80,IMU,1.95,41.99,961.91,-20.21,-7.30,21.08,-66.60,-6.00,-211.05,30.7
2026/05/20 21:18:42.90,IMU,-7.32,-64.94,942.38,-18.73,-13.77,22.67,-66.75,-6.60,-210.90,30.5
2026/05/20 21:18:43.00,IMU,36.13,-103.52,969.73,-42.20,-21.20,38.17,-67.05,-5.85,-210.60,30.6
2026/05/20 21:18:43.10,IMU,6.84,-130.37,991.70,5.06,-16.04,24.45,-68.25,-5.85,-209.10,30.6
2026/05/20 21:18:43.20,IMU,90.82,14.65,1109.86,20.34,19.94,9.53,-68.85,-3.90,-208.35,30.3
2026/05/20 21:18:43.30,IMU,-39.06,-58.11,938.48,0.73,-6.29,36.58,-66.75,-3.60,-208.05,30.5
2026/05/20 21:18:43.40,IMU,35.16,-18.07,990.23,18.63,2.87,16.68,-67.65,-1.80,-208.50,30.5
2026/05/20 21:18:43.51,IMU,-42.97,-78.61,984.38,-26.42,-11.00,38.85,-67.65,-1.05,-209.25,30.4
2026/05/20 21:18:43.61,IMU,42.48,-28.81,978.52,18.79,-6.37,9.39,-69.90,37.35,-209.85,30.4
2026/05/20 21:18:43.73,IMU,3.42,-8.79,1094.24,-7.34,6.39,36.39,-69.45,1.80,-209.70,30.4
2026/05/20 21:18:43.83,IMU,53.71,31.25,1126.95,13.34,2.94,43.15,-71.55,1.65,-209.85,30.6
2026/05/20 21:18:43.93,IMU,24.41,-62.99,958.50,19.58,9.05,23.00,-69.45,2.55,-210.30,30.5
2026/05/20 21:18:44.03,IMU,-19.04,-165.04,987.30,5.05,0.80,10.65,-69.45,3.30,-209.25,30.4
2026/05/20 21:18:44.13,IMU,127.93,-6.84,996.58,7.72,-19.47,-1.73,-69.30,5.10,-209.85,30.3
2026/05/20 21:18:44.23,IMU,52.25,-18.55,956.54,-8.18,-26.95,-8.09,-70.95,5.55,-209.25,30.4
2026/05/20 21:18:44.34,IMU,83.50,-66.89,942.87,-13.77,18.50,1.32,-70.80,4.65,-208.80,30.5
2026/05/20 21:18:44.44,IMU,31.25,78.12,1128.91,-10.90,37.09,-8.96,-70.20,5.25,-208.20,30.3
2026/05/20 21:18:44.54,IMU,-74.22,-54.20,1028.81,-20.81,-2.73,24.26,-70.20,4.05,-209.70,30.5
2026/05/20 21:18:44.66,IMU,-96.68,46.88,879.88,-3.60,-17.24,9.37,-69.45,2.55,-207.45,30.6
2026/05/20 21:18:44.76,IMU,14.65,11.72,904.79,14.97,1.44,-1.30,-70.35,4.65,-206.55,30.5
2026/05/20 21:18:44.86,IMU,50.29,47.36,974.61,0.92,-16.69,5.34,-68.85,6.60,-204.75,30.7
2026/05/20 21:18:44.96,IMU,30.76,-4.39,988.28,6.74,-10.44,-0.27,-69.30,5.85,-202.95,30.5
2026/05/20 21:18:45.06,IMU,112.30,14.16,1035.16,20.82,8.29,-6.92,-69.90,6.00,-202.35,30.3
2026/05/20 21:18:45.17,IMU,71.29,49.80,947.27,-20.36,-4.52,14.71,-70.35,5.10,-202.95,30.3
2026/05/20 21:18:45.27,IMU,147.46,25.88,1011.72,3.31,-4.33,24.49,-72.30,1.95,-199.05,30.6
2026/05/20 21:18:45.37,IMU,66.89,16.11,974.61,16.11,-7.48,11.27,-68.85,5.10,-203.70,30.7
2026/05/20 21:18:45.47,IMU,79.10,60.06,936.52,12.11,-17.76,21.05,-69.45,7.95,-204.60,30.0
2026/05/20 21:18:45.57,IMU,59.57,4.39,958.50,-17.44,16.40,13.63,-70.65,5.55,-205.95,30.3
2026/05/20 21:18:45.67,IMU,70.31,-28.32,812.01,-11.21,-8.14,-6.39,-68.85,5.85,-205.05,30.4
2026/05/20 21:18:45.77,IMU,158.20,-18.07,969.24,-1.31,-20.73,-35.08,-69.15,3.75,-207.45,30.8
2026/05/20 21:18:45.87,IMU,42.97,-58.59,1078.13,-13.95,41.55,-57.00,-74.40,0.45,-207.60,30.7
2026/05/20 21:18:45.97,IMU,-10.25,-36.62,865.23,10.50,28.55,-65.11,-67.05,0.90,-213.00,30.5
2026/05/20 21:18:46.07,IMU,-4.39,49.32,1003.91,-13.82,23.50,-56.73,-68.25,-0.15,-215.55,30.7
2026/05/20 21:18:46.17,IMU,-12.70,8.30,1045.41,33.21,17.39,-49.13,-67.80,-1.20,-214.50,30.4
2026/05/20 21:18:46.27,IMU,-62.99,29.30,1009.77,-27.42,1.02,-27.06,-66.00,-2.70,-215.25,30.6
2026/05/20 21:18:46.37,IMU,-25.88,-11.23,1024.90,19.68,-17.24,-24.25,-66.30,-3.15,-215.40,30.7
2026/05/20 21:18:46.47,IMU,-42.97,54.20,1009.28,-2.57,16.89,-8.34,-67.20,-3.00,-215.70,30.5
2026/05/20 21:18:46.57,IMU,-80.08,-0.98,1062.50,-5.07,4.34,0.02,-66.00,-4.35,-217.05,30.7
2026/05/20 21:18:46.67,IMU,-48.83,31.25,1179.69,9.56,28.47,2.43,-66.75,-1.20,-216.30,30.6
2026/05/20 21:18:46.77,IMU,-185.06,41.50,1194.34,4.79,25.17,18.01,-63.60,-2.55,-218.70,30.3
2026/05/20 21:18:46.87,IMU,-164.06,36.13,1081.05,-9.31,7.19,21.19,-66.00,-4.65,-212.40,30.6
2026/05/20 21:18:47.00,IMU,-169.43,-151.86,774.41,3.16,-34.40,28.57,-62.70,-1.20,-214.80,30.4
2026/05/20 21:18:47.10,IMU,12.70,48.34,767.58,-32.27,6.08,48.82,-65.55,-1.20,-213.00,30.4
2026/05/20 21:18:47.20,IMU,-67.38,-32.23,969.73,-11.32,-9.44,36.73,-64.35,2.55,-212.85,30.5
2026/05/20 21:18:47.31,IMU,-123.54,256.84,1061.52,38.62,1.16,36.80,-66.75,2.70,-211.95,30.5
2026/05/20 21:18:47.41,IMU,-99.61,81.05,980.47,-18.51,11.60,47.55,-66.75,5.10,-213.45,30.5
2026/05/20 21:18:47.51,IMU,-97.66,40.04,979.49,1.75,12.80,59.40,-68.55,6.15,-213.45,30.3
2026/05/20 21:18:47.61,IMU,-87.40,87.89,986.33,-32.92,27.20,79.37,-70.80,6.60,-211.95,30.4
2026/05/20 21:18:47.71,IMU,-64.94,-63.48,1101.07,-37.47,-22.08,54.57,-70.35,8.10,-211.95,30.5
2026/05/20 21:18:47.81,IMU,-77.64,-20.02,1003.91,-16.95,5.78,61.09,-71.10,8.85,-210.60,30.6
2026/05/20 21:18:47.91,IMU,32.23,40.53,929.20,-25.85,15.29,51.53,-75.00,8.70,-206.70,30.8
2026/05/20 21:18:48.01,IMU,-159.67,-79.59,1010.25,-4.46,4.18,50.88,-74.25,9.45,-209.70,30.5
2026/05/20 21:18:48.13,IMU,3.42,154.79,929.69,-4.68,-40.71,11.27,-75.00,9.75,-210.30,30.5
2026/05/20 21:18:48.23,IMU,-102.54,-41.99,958.98,21.19,-45.58,40.89,-79.65,10.80,-209.40,30.6
2026/05/20 21:18:48.33,IMU,81.54,62.99,893.55,25.92,5.91,48.60,-82.95,13.80,-210.90,30.5
2026/05/20 21:18:48.44,IMU,-14.65,95.21,1080.57,18.58,7.84,17.40,-84.60,15.45,-211.50,30.7
2026/05/20 21:18:48.54,IMU,-53.71,63.96,1011.23,9.59,10.62,18.05,-84.00,14.55,-212.70,30.6
2026/05/20 21:18:48.64,IMU,-62.99,114.75,1095.21,27.80,-16.27,11.28,-85.50,16.50,-212.70,30.3
2026/05/20 21:18:48.75,IMU,-212.40,132.32,1134.28,-32.37,-3.31,2.33,-84.30,16.50,-213.00,30.2
2026/05/20 21:18:48.85,IMU,-41.50,182.13,830.57,31.71,-26.47,20.33,-86.70,15.90,-213.60,30.7
2026/05/20 21:18:48.95,IMU,-36.13,208.50,1051.76,6.43,0.92,0.53,-87.90,17.40,-214.65,30.5
2026/05/20 21:18:49.05,IMU,-32.71,80.57,1024.41,-50.19,64.61,-3.92,-87.75,14.10,-210.90,30.5
2026/05/20 21:18:49.15,IMU,-115.72,89.84,996.09,-6.14,-37.81,3.03,-84.90,13.95,-211.50,30.0
2026/05/20 21:18:49.25,IMU,-37.11,110.35,919.92,34.48,-28.39,4.89,-86.70,15.90,-212.85,30.6
2026/05/20 21:18:49.35,IMU,-121.09,105.47,913.57,-1.84,-0.12,-0.73,-88.20,17.40,-213.60,30.7
2026/05/20 21:18:49.45,IMU,21.00,105.47,992.19,-2.18,-0.85,0.16,-87.45,17.40,-214.35,30.6
2026/05/20 21:18:49.55,IMU,0.98,119.14,1007.32,-10.56,6.09,8.09,-88.65,17.40,-213.90,30.4
2026/05/20 21:18:49.65,IMU,-13.67,81.54,998.05,-15.34,17.01,3.81,-88.80,15.75,-213.75,30.3
2026/05/20 21:18:49.75,IMU,-35.16,94.24,965.33,-37.91,14.85,-3.06,-88.05,15.30,-213.75,30.3
2026/05/20 21:18:49.88,IMU,-3.42,-55.18,951.17,-16.26,-0.92,-2.24,-86.25,12.60,-209.85,30.5
2026/05/20 21:18:49.98,IMU,-78.12,-28.32,1020.51,6.25,3.02,4.92,-87.00,11.55,-210.15,30.3
2026/05/20 21:18:50.08,IMU,-79.59,9.28,1033.69,1.92,1.83,2.58,-87.00,12.30,-211.95,30.4
2026/05/20 21:18:50.18,IMU,-66.41,-0.98,993.65,0.07,3.69,1.82,-86.25,12.60,-209.85,30.5
2026/05/20 21:18:50.28,IMU,-44.92,-37.11,1182.13,48.34,0.85,8.09,-84.75,13.80,-211.95,30.3
2026/05/20 21:18:50.38,IMU,-116.21,77.15,1035.16,-7.73,-1.56,-2.99,-86.10,13.95,-212.10,30.4
2026/05/20 21:18:50.48,IMU,-85.94,38.09,1003.42,-0.63,-1.73,-0.05,-87.00,15.30,-212.40,30.7
2026/05/20 21:18:50.58,IMU,-81.05,39.06,1044.43,-20.50,-15.79,-0.02,-87.00,14.55,-210.90,30.5
2026/05/20 21:18:50.68,IMU,-77.64,19.04,1011.72,0.92,0.36,1.32,-87.00,14.10,-211.95,30.3
2026/05/20 21:18:50.78,IMU,-37.60,21.00,1015.63,-0.19,2.75,2.05,-90.45,12.90,-207.90,30.6
2026/05/20 21:18:50.88,IMU,-81.05,17.09,1004.39,1.70,-0.36,1.03,-87.30,13.35,-211.65,30.2
2026/05/20 21:18:50.98,IMU,-41.50,24.41,1029.79,-1.40,-0.72,0.87,-88.65,12.15,-207.90,30.5
2026/05/20 21:18:51.08,IMU,-42.48,17.09,1014.16,-0.65,-0.39,4.18,-85.65,13.95,-211.50,30.3
2026/05/20 21:18:51.18,IMU,-54.20,21.97,985.84,-0.83,-1.86,1.62,-86.55,13.35,-211.20,30.4
2026/05/20 21:18:51.28,IMU,-43.95,33.20,994.63,1.37,1.05,-0.37,-87.90,14.40,-211.80,30.5
2026/05/20 21:18:51.38,IMU,-48.83,26.37,990.23,0.64,2.35,-1.62,-85.65,13.65,-211.05,30.3
2026/05/20 21:18:51.48,IMU,-58.11,37.60,1009.28,-2.27,0.11,3.13,-86.40,12.45,-211.80,30.4
2026/05/20 21:18:51.61,IMU,-20.02,52.25,1023.44,-1.25,0.55,-0.21,-86.25,14.55,-210.60,30.3
2026/05/20 21:18:51.71,IMU,-25.88,40.53,990.23,-2.50,0.70,0.51,-86.70,15.15,-210.75,30.3
2026/05/20 21:18:51.81,IMU,-91.31,7.81,1008.30,-1.13,0.74,0.99,-86.55,13.80,-211.20,30.6
2026/05/20 21:18:51.91,IMU,-33.20,46.39,999.02,-0.89,1.81,0.34,-86.55,13.35,-213.00,30.5
2026/05/20 21:18:52.01,IMU,-56.64,31.74,996.09,-0.73,-0.76,1.56,-88.80,13.05,-209.10,30.4
2026/05/20 21:18:52.11,IMU,-68.36,16.60,987.30,0.13,0.34,0.56,-88.20,13.20,-210.75,30.1
2026/05/20 21:18:52.21,IMU,-39.55,24.90,995.12,0.53,0.40,0.40,-91.95,12.15,-205.95,30.3
2026/05/20 21:18:52.31,IMU,-52.73,28.32,1005.37,0.15,-0.35,-2.34,-85.80,14.55,-211.65,30.6
2026/05/20 21:18:52.41,IMU,-47.36,29.79,1002.93,-1.20,0.29,1.78,-86.55,13.80,-210.90,30.5
2026/05/20 21:18:52.51,IMU,-60.06,13.67,1014.65,-1.60,-1.36,-0.47,-85.50,13.35,-211.20,30.4
2026/05/20 21:18:52.61,IMU,-52.73,20.02,1000.49,0.26,-0.18,2.44,-87.30,14.55,-212.70,30.5
2026/05/20 21:18:52.71,IMU,-56.64,16.11,1015.63,-1.52,0.60,-1.47,-86.55,13.05,-211.65,30.3
2026/05/20 21:18:52.81,IMU,-41.02,37.60,1010.74,1.02,-0.70,-1.40,-86.40,14.70,-211.05,30.4
2026/05/20 21:18:52.91,IMU,-52.73,17.58,992.19,-1.47,2.04,-0.04,-85.65,13.20,-212.85,30.3
2026/05/20 21:18:53.02,IMU,-58.11,35.64,983.40,-0.03,-0.50,0.06,-89.10,11.85,-209.10,30.3
2026/05/20 21:18:53.12,IMU,-51.27,17.58,997.07,-0.63,-1.20,-2.75,-87.00,14.55,-212.40,30.6
2026/05/20 21:18:53.22,IMU,-51.76,41.02,979.00,-1.26,0.47,-1.72,-86.55,15.30,-212.40,30.5
2026/05/20 21:18:53.32,IMU,-49.32,21.00,989.75,-1.18,-0.60,0.48,-87.00,15.30,-211.20,30.6
2026/05/20 21:18:53.42,IMU,-45.41,28.32,1000.49,0.80,-0.92,0.40,-85.80,14.85,-211.65,30.4
2026/05/20 21:18:53.53,IMU,-50.29,29.30,987.30,-1.10,-0.94,0.49,-86.55,14.10,-212.40,30.5
2026/05/20 21:18:53.63,IMU,-48.34,21.97,1006.35,-1.04,0.50,-0.31,-86.70,13.95,-213.30,30.2
2026/05/20 21:18:53.73,IMU,-45.90,38.57,993.16,-0.95,0.55,1.27,-86.40,13.65,-211.05,30.3
2026/05/20 21:18:53.83,IMU,-65.92,45.90,1015.14,-2.93,2.98,-1.62,-85.35,14.70,-210.75,30.6
2026/05/20 21:18:53.93,IMU,-44.43,22.95,987.79,1.21,0.01,-2.18,-87.00,15.75,-211.20,30.3
2026/05/20 21:18:54.04,IMU,-40.04,30.76,992.68,-0.94,0.31,0.65,-90.75,12.15,-208.95,30.1
2026/05/20 21:18:54.14,IMU,-58.11,21.48,1004.88,-0.44,1.00,-2.02,-87.75,15.30,-212.70,30.5
2026/05/20 21:18:54.24,IMU,-50.78,39.55,994.14,-0.93,1.92,-2.87,-90.15,12.90,-209.25,30.3
2026/05/20 21:18:54.34,IMU,-66.89,25.39,980.96,-0.59,-1.00,2.57,-86.40,13.95,-211.05,30.3
2026/05/20 21:18:54.44,IMU,-52.73,26.37,998.54,-1.87,2.14,2.30,-86.40,13.65,-211.05,30.6
2026/05/20 21:18:54.54,IMU,-47.36,24.41,981.45,-2.22,0.59,-0.65,-87.45,13.20,-212.10,30.5
2026/05/20 21:18:54.64,IMU,-54.20,33.20,995.61,-0.38,0.32,1.24,-85.80,14.85,-210.60,30.4
2026/05/20 21:18:54.78,IMU,-62.01,41.50,999.02,-0.70,-1.82,0.03,-86.40,13.95,-211.50,30.4
2026/05/20 21:18:54.88,IMU,-69.34,33.20,996.09,0.70,0.42,-1.21,-86.40,13.95,-211.80,30.4
2026/05/20 21:18:54.98,IMU,-60.06,26.37,993.16,-1.76,-1.38,1.31,-87.45,13.95,-210.75,30.6
2026/05/20 21:18:55.08,IMU,-56.64,20.51,1003.91,-0.82,-2.18,0.29,-87.75,13.35,-211.20,30.5
2026/05/20 21:18:55.18,IMU,-64.94,12.70,1005.37,-0.48,0.44,-1.30,-87.45,14.70,-211.50,30.5
2026/05/20 21:18:55.28,IMU,-51.76,16.11,977.05,0.36,0.76,-0.99,-87.00,13.35,-210.60,30.3
2026/05/20 21:18:55.38,IMU,-51.76,25.88,1007.32,-0.98,-0.73,1.24,-86.10,14.70,-212.10,30.5
2026/05/20 21:18:55.48,IMU,-51.76,28.32,996.58,-0.05,1.16,-0.72,-85.80,14.85,-210.60,30.5
2026/05/20 21:18:55.58,IMU,-40.04,23.93,999.51,-1.38,-1.12,1.44,-87.30,12.60,-211.65,30.5
2026/05/20 21:18:55.68,IMU,-67.87,28.81,995.61,-1.32,-0.78,0.02,-85.80,13.35,-210.90,30.6
2026/05/20 21:18:55.78,IMU,-53.71,27.83,997.07,-2.34,2.15,0.50,-85.50,13.80,-211.20,30.3
2026/05/20 21:18:55.88,IMU,-46.88,31.25,1001.95,-0.36,1.15,0.95,-86.70,13.20,-211.05,30.7
2026/05/20 21:18:55.98,IMU,-65.92,23.93,1010.74,-0.58,0.80,-1.18,-88.20,14.40,-211.50,30.1
2026/05/20 21:18:56.08,IMU,-52.25,30.27,995.12,-1.41,0.03,0.72,-87.75,14.55,-211.65,30.5
2026/05/20 21:18:56.19,IMU,-40.53,25.88,995.12,-0.01,-2.42,-1.85,-88.05,14.10,-210.15,30.3
2026/05/20 21:18:56.29,IMU,-61.04,30.27,989.75,-0.23,-0.22,1.90,-88.35,14.10,-211.20,30.3
2026/05/20 21:18:56.39,IMU,-53.71,37.11,998.05,0.40,0.36,1.55,-86.25,13.80,-210.60,30.3
2026/05/20 21:18:56.49,IMU,-56.15,21.48,1002.93,0.08,-0.73,1.75,-87.15,13.20,-211.05,30.6
2026/05/20 21:18:56.59,IMU,-51.27,30.76,1000.00,-2.29,-0.56,0.76,-86.55,14.55,-211.65,30.7
2026/05/20 21:18:56.69,IMU,-58.59,31.25,999.02,1.52,-2.37,-1.39,-86.55,14.85,-211.20,30.5
2026/05/20 21:18:56.81,IMU,-46.39,18.55,1005.37,-0.62,2.81,1.34,-87.15,13.65,-211.50,30.0
2026/05/20 21:18:56.91,IMU,-63.48,27.34,986.33,-2.53,-1.15,1.82,-87.45,14.70,-211.05,30.5
2026/05/20 21:18:57.01,IMU,-49.80,23.93,994.63,-1.79,0.11,1.18,-86.70,12.90,-211.80,30.3
2026/05/20 21:18:57.11,IMU,-55.66,18.07,998.54,-1.27,-0.11,-1.08,-88.80,13.35,-209.10,30.5
2026/05/20 21:18:57.21,IMU,-54.20,19.53,999.02,-0.36,-0.11,2.65,-86.40,13.65,-211.50,30.3
2026/05/20 21:18:57.31,IMU,-41.99,20.02,995.61,0.11,-0.80,4.32,-87.00,13.35,-211.95,30.3
2026/05/20 21:18:57.41,IMU,-42.97,15.14,1000.49,-0.49,-0.56,0.05,-86.25,13.80,-210.90,30.5
2026/05/20 21:18:57.51,IMU,-55.18,24.90,1001.95,-2.45,-1.26,-0.42,-87.90,14.40,-210.75,30.5
2026/05/20 21:18:57.62,IMU,-70.31,17.09,1013.18,-3.22,2.00,-1.43,-87.15,13.95,-211.05,30.5
2026/05/20 21:18:57.72,IMU,-64.45,21.48,999.02,1.14,-0.27,0.74,-87.75,14.55,-211.95,30.3
2026/05/20 21:18:57.82,IMU,-64.94,20.02,1000.00,-0.11,0.15,0.85,-87.15,13.95,-212.55,30.5
2026/05/20 21:18:57.94,IMU,-57.62,27.83,991.21,-2.03,0.83,0.03,-87.45,12.90,-211.50,30.5
2026/05/20 21:18:58.04,IMU,-52.25,22.46,1004.88,0.02,1.24,0.95,-86.55,14.10,-210.60,30.4
2026/05/20 21:18:58.14,IMU,-54.69,33.20,998.05,-0.39,-2.06,-1.21,-87.00,13.05,-211.20,30.4
2026/05/20 21:18:58.25,IMU,-59.57,25.39,1010.25,-1.88,-0.20,1.12,-87.00,14.85,-211.65,30.6
2026/05/20 21:18:58.35,IMU,-49.80,26.37,998.54,0.12,0.82,0.69,-87.15,12.90,-210.75,30.5
2026/05/20 21:18:58.45,IMU,-52.73,21.97,995.12,-0.82,0.55,1.18,-86.55,13.35,-211.65,30.5
2026/05/20 21:18:58.57,IMU,-47.85,16.60,1003.42,0.13,-0.86,-0.49,-90.15,10.20,-207.45,30.3
2026/05/20 21:18:58.67,IMU,-52.25,34.67,1005.86,-0.24,-0.24,0.44,-87.15,12.90,-211.50,30.3
2026/05/20 21:18:58.77,IMU,-54.69,30.27,1000.00,-0.50,-0.44,-0.28,-88.35,13.80,-211.65,30.3
2026/05/20 21:18:58.87,IMU,-61.04,41.99,999.02,-0.45,-0.94,0.31,-87.30,14.55,-210.60,30.5
2026/05/20 21:18:58.97,IMU,-51.27,21.48,1004.39,-1.51,0.08,1.46,-87.45,13.65,-212.10,30.5
2026/05/20 21:18:59.07,IMU,-55.66,30.27,1002.93,-0.96,1.46,1.67,-86.40,12.90,-211.80,30.5
2026/05/20 21:18:59.17,IMU,-56.15,19.53,999.51,-1.29,0.05,1.27,-87.00,14.55,-211.20,30.6
2026/05/20 21:18:59.27,IMU,-60.55,9.28,992.19,0.08,-1.60,-0.35,-85.65,15.90,-211.50,30.1
2026/05/20 21:18:59.41,IMU,-52.73,25.39,980.47,-0.55,-2.39,1.82,-88.05,13.35,-211.20,30.4
2026/05/20 21:18:59.51,IMU,-41.50,28.81,995.12,-1.04,-0.43,-1.47,-86.10,14.70,-211.50,30.5
2026/05/20 21:18:59.61,IMU,-46.88,33.69,1000.98,-2.50,1.02,0.37,-86.40,13.65,-211.50,30.5
2026/05/20 21:18:59.71,IMU,-56.64,38.57,1004.39,-1.44,2.79,0.27,-86.40,14.70,-210.75,30.3
2026/05/20 21:18:59.81,IMU,-57.13,22.46,1011.23,-1.18,1.08,1.66,-87.30,13.35,-212.40,30.5
2026/05/20 21:18:59.91,IMU,-53.22,31.74,1008.79,-1.91,0.12,0.16,-88.05,13.35,-211.65,30.3
2026/05/20 21:19:00.01,IMU,-49.32,31.25,1003.91,-0.82,1.71,0.98,-89.10,16.50,-210.15,30.5
2026/05/20 21:19:00.11,IMU,-64.94,19.04,995.61,-1.19,-1.27,3.89,-86.55,14.10,-211.95,30.7
2026/05/20 21:19:00.22,IMU,-40.04,24.90,1011.23,-2.06,-0.36,-0.30,-86.70,14.70,-210.75,30.4
2026/05/20 21:19:00.32,IMU,-69.82,27.83,995.61,0.40,-0.66,1.08,-87.30,14.10,-210.90,30.4
2026/05/20 21:19:00.42,IMU,-57.13,31.74,1005.37,-1.70,-1.63,0.73,-86.40,13.95,-212.85,30.4
2026/05/20 21:19:00.53,IMU,-43.46,16.60,1009.77,-1.50,-0.33,-1.16,-87.30,13.35,-211.65,30.5
2026/05/20 21:19:00.63,IMU,-52.25,17.09,996.09,-1.85,-0.53,-1.21,-87.15,13.65,-211.80,30.3
2026/05/20 21:19:00.73,IMU,-49.80,25.39,994.14,-1.20,-3.15,0.17,-87.15,13.95,-211.50,30.5
2026/05/20 21:19:00.84,IMU,-49.80,17.09,1005.86,-0.82,0.54,1.89,-86.70,13.65,-211.80,30.7
2026/05/20 21:19:00.94,IMU,-46.88,45.41,994.14,-1.41,1.47,0.69,-85.80,13.05,-211.20,30.5
2026/05/20 21:19:01.04,IMU,-51.27,24.90,1007.81,-0.73,-2.10,1.15,-88.05,13.35,-211.20,30.5
2026/05/20 21:19:01.15,IMU,-47.36,35.64,998.54,-3.19,-0.35,-1.08,-87.30,13.05,-211.20,30.5
2026/05/20 21:19:01.25,IMU,-48.83,27.34,992.68,-1.35,-1.07,2.24,-90.15,10.20,-207.90,30.6
2026/05/20 21:19:01.35,IMU,-56.15,19.04,1007.81,0.05,-0.31,4.01,-86.25,14.55,-210.60,30.5
2026/05/20 21:19:01.45,IMU,-59.57,26.37,992.68,-1.24,-0.34,3.10,-87.00,14.85,-211.65,30.6
2026/05/20 21:19:01.55,IMU,-45.41,39.55,996.09,-1.73,-0.36,0.60,-86.25,14.85,-211.20,30.6
2026/05/20 21:19:01.65,IMU,-65.92,18.07,985.84,-1.89,0.44,-1.44,-86.70,15.15,-210.75,30.4
2026/05/20 21:19:01.75,IMU,-50.29,29.79,990.72,-1.11,-0.53,-0.47,-86.55,14.10,-211.95,30.7
2026/05/20 21:19:01.85,IMU,-58.11,28.32,986.33,-1.24,3.12,0.23,-87.75,13.35,-211.65,30.5
2026/05/20 21:19:01.95,IMU,-57.62,14.65,1011.72,0.26,-0.82,-0.01,-86.40,13.65,-211.80,30.4
2026/05/20 21:19:02.05,IMU,-46.39,32.23,1003.91,-1.66,-0.53,-0.75,-87.45,14.70,-211.80,30.6
2026/05/20 21:19:02.15,IMU,-54.69,32.23,1006.84,-0.40,0.09,1.06,-86.55,14.10,-211.20,30.3
2026/05/20 21:19:02.27,IMU,-60.55,32.71,997.07,-0.68,0.78,1.55,-89.55,12.30,-206.85,30.2
2026/05/20 21:19:02.37,IMU,-48.83,33.20,995.61,-0.82,0.24,1.92,-86.55,14.55,-211.95,30.5
2026/05/20 21:19:02.47,IMU,-55.66,35.64,1003.42,-0.79,-1.20,1.61,-86.55,14.10,-211.95,30.3
2026/05/20 21:19:02.59,IMU,-57.13,33.69,999.51,-1.01,-0.93,1.73,-87.75,14.10,-211.95,30.7
2026/05/20 21:19:02.69,IMU,-49.80,33.69,998.05,-0.69,0.12,1.95,-87.45,13.95,-210.75,30.7
2026/05/20 21:19:02.80,IMU,-48.83,24.41,983.89,-1.11,-0.45,3.10,-86.40,13.65,-212.55,30.6
2026/05/20 21:19:02.90,IMU,-51.76,43.46,989.75,-0.02,0.66,1.97,-90.30,12.30,-207.60,30.7
2026/05/20 21:19:03.00,IMU,-55.18,36.13,998.54,0.24,-0.82,0.53,-86.70,14.40,-211.50,30.7
2026/05/20 21:19:03.10,IMU,-57.62,28.81,988.77,-0.37,-0.81,0.24,-86.55,14.10,-211.65,30.3
2026/05/20 21:19:03.20,IMU,-49.80,32.71,978.52,-1.08,-0.02,3.37,-86.40,12.90,-211.05,30.5
2026/05/20 21:19:03.30,IMU,-52.73,25.88,1000.98,0.15,1.18,1.65,-90.15,11.25,-207.90,30.1
2026/05/20 21:19:03.40,IMU,-44.92,32.71,1011.23,0.18,-1.35,2.27,-86.10,14.40,-212.10,30.7
2026/05/20 21:19:03.50,IMU,-56.15,19.53,1001.95,-1.95,0.80,-0.02,-88.20,14.40,-211.05,30.5
2026/05/20 21:19:03.60,IMU,-44.43,31.25,994.14,-0.19,-0.05,-0.61,-85.50,13.35,-211.95,30.4
2026/05/20 21:19:03.72,IMU,-56.64,22.46,969.24,-0.34,0.33,-0.57,-84.75,13.05,-211.20,30.3
2026/05/20 21:19:03.82,IMU,-57.62,29.30,1000.00,-0.79,0.79,0.95,-87.30,14.85,-211.20,30.6
2026/05/20 21:19:03.92,IMU,-59.08,39.55,1006.35,1.01,-0.78,2.15,-87.00,14.10,-212.40,30.5
2026/05/20 21:19:04.03,IMU,-64.45,31.74,1001.46,-0.93,-1.02,-0.97,-88.05,13.80,-211.65,30.4
2026/05/20 21:19:04.13,IMU,-58.59,31.74,1007.32,2.27,-0.92,1.76,-87.90,13.65,-210.75,30.4
2026/05/20 21:19:04.23,IMU,-57.62,30.76,951.17,1.30,-0.15,1.08,-86.70,13.65,-210.75,30.6
2026/05/20 21:19:04.34,IMU,-61.04,14.65,1005.37,-1.34,-0.10,0.41,-91.80,12.30,-208.35,30.2
2026/05/20 21:19:04.44,IMU,-61.52,21.97,986.82,-2.30,-2.75,1.44,-87.75,14.55,-211.20,30.7
2026/05/20 21:19:04.54,IMU,-66.89,22.46,992.19,-1.18,0.55,-0.02,-87.75,13.35,-211.95,30.2
2026/05/20 21:19:04.65,IMU,-76.17,18.07,998.05,-0.48,1.43,1.81,-87.30,12.60,-211.20,30.1
2026/05/20 21:19:04.75,IMU,-68.36,26.86,1004.39,0.92,-0.10,0.98,-86.55,14.55,-212.40,30.2
2026/05/20 21:19:04.85,IMU,-48.34,34.18,993.65,-1.05,1.81,-0.61,-87.15,13.65,-212.55,30.5
2026/05/20 21:19:04.97,IMU,-50.78,15.63,1019.04,-0.69,2.54,0.30,-90.15,10.95,-206.70,30.7
2026/05/20 21:19:05.07,IMU,-57.62,45.41,997.07,0.17,2.19,-1.43,-87.30,12.60,-211.20,30.6
2026/05/20 21:19:05.17,IMU,-60.06,34.67,1001.95,-0.15,1.48,2.77,-86.70,14.40,-211.80,30.3
2026/05/20 21:19:05.27,IMU,-55.18,15.14,991.70,-0.85,-0.09,-0.16,-87.45,14.70,-211.50,30.4
2026/05/20 21:19:05.37,IMU,-61.04,12.70,1006.35,-0.92,1.89,2.49,-88.20,12.45,-207.90,30.3
2026/05/20 21:19:05.47,IMU,-34.18,45.41,1008.79,-1.00,-1.50,1.95,-85.80,14.10,-210.60,30.2
2026/05/20 21:19:05.57,IMU,-63.48,27.83,1012.21,-1.04,0.31,2.75,-87.30,13.80,-211.65,30.5
2026/05/20 21:19:05.67,IMU,-59.57,21.00,996.58,-2.11,2.68,0.47,-86.55,14.55,-212.40,30.5
2026/05/20 21:19:05.80,IMU,-47.85,23.93,992.68,0.73,1.47,1.95,-86.10,14.70,-211.05,30.3
2026/05/20 21:19:05.90,IMU,-57.13,49.80,1009.77,-0.32,-0.92,-0.79,-87.00,14.55,-211.65,30.3
2026/05/20 21:19:06.00,IMU,-42.97,21.48,1011.72,0.19,-0.78,0.47,-86.70,14.40,-211.05,30.4
2026/05/20 21:19:06.10,IMU,-39.55,21.97,1000.00,1.53,-2.63,2.99,-87.75,13.05,-210.60,30.3
2026/05/20 21:19:06.20,IMU,-42.48,20.02,1000.00,-0.85,-0.25,0.76,-85.65,14.40,-211.50,30.5
2026/05/20 21:19:06.30,IMU,-47.85,27.34,1013.18,-0.70,0.05,-1.66,-87.90,12.90,-212.10,30.5
2026/05/20 21:19:06.40,IMU,-47.36,27.34,1004.39,-2.76,-3.69,-0.37,-88.95,12.15,-208.95,30.6
2026/05/20 21:19:06.50,IMU,-55.18,16.11,1003.91,0.20,1.00,0.08,-86.10,13.65,-212.10,29.9
2026/05/20 21:19:06.60,IMU,-30.76,16.60,1000.49,-0.79,0.79,2.29,-85.80,13.80,-212.70,30.3
2026/05/20 21:19:06.70,IMU,-52.25,13.18,1025.88,0.29,0.05,0.68,-85.80,13.05,-210.15,30.3
2026/05/20 21:19:06.80,IMU,-47.85,25.88,997.07,0.33,0.62,-0.07,-87.45,14.70,-210.30,30.3
2026/05/20 21:19:06.90,IMU,-44.43,27.83,978.52,-0.93,1.16,2.39,-85.65,14.40,-212.55,30.5
2026/05/20 21:19:07.01,IMU,-51.76,35.16,994.63,-0.59,-2.17,2.36,-87.45,14.40,-212.10,30.5
2026/05/20 21:19:07.11,IMU,-48.34,28.32,1010.25,0.07,1.63,0.53,-86.70,14.40,-211.05,30.4
2026/05/20 21:19:07.21,IMU,-64.94,37.11,1003.42,-1.00,-1.48,0.37,-87.90,14.70,-211.80,30.2
2026/05/20 21:19:07.31,IMU,-53.71,32.23,992.68,-3.44,0.78,0.85,-87.90,14.40,-211.50,30.3
2026/05/20 21:19:07.41,IMU,-65.43,23.44,1012.70,0.50,-0.51,-1.19,-91.20,11.25,-206.70,30.1
2026/05/20 21:19:07.51,IMU,-54.69,28.81,987.79,-2.37,0.69,1.82,-86.40,14.40,-211.80,29.8
2026/05/20 21:19:07.62,IMU,-55.66,18.55,987.30,0.20,-0.47,-1.04,-87.75,13.35,-212.40,30.3
2026/05/20 21:19:07.72,IMU,-58.59,26.86,996.58,-0.46,-0.24,-1.10,-87.90,13.95,-210.75,30.3
2026/05/20 21:19:07.82,IMU,-35.16,29.30,1000.49,-1.66,0.82,2.12,-87.00,14.55,-211.20,29.9
2026/05/20 21:19:07.92,IMU,-39.06,15.14,1002.44,1.73,1.89,3.52,-87.75,14.85,-210.60,30.1
2026/05/20 21:19:08.02,IMU,-54.20,22.46,1000.98,-0.99,0.44,3.33,-87.45,14.70,-210.75,30.2
2026/05/20 21:19:08.12,IMU,-55.18,15.63,999.51,-1.31,0.50,1.63,-91.35,11.10,-205.50,30.1
2026/05/20 21:19:08.22,IMU,-58.11,21.48,999.51,-0.88,-0.48,-0.53,-85.80,14.55,-211.20,30.3
2026/05/20 21:19:08.32,IMU,-47.85,23.93,1008.79,0.56,-0.18,1.15,-87.30,15.30,-211.20,29.9
2026/05/20 21:19:08.44,IMU,-58.59,31.74,1003.91,-1.14,0.66,0.08,-90.45,11.70,-206.40,30.0
2026/05/20 21:19:08.54,IMU,-58.59,43.95,1000.49,-2.85,1.34,1.88,-87.90,13.20,-210.75,29.8
2026/05/20 21:19:08.64,IMU,-46.88,25.88,1001.46,0.31,0.82,1.71,-86.25,16.05,-212.70,30.3
2026/05/20 21:19:08.74,IMU,-54.20,27.34,1003.42,-0.85,2.62,2.23,-87.90,13.20,-211.80,30.1
2026/05/20 21:19:08.84,IMU,-45.41,13.18,991.70,-1.27,0.96,-1.18,-86.40,13.20,-211.80,29.9
2026/05/20 21:19:08.94,IMU,-52.25,33.69,997.56,-0.62,0.21,-0.81,-87.00,14.55,-210.90,30.3
2026/05/20 21:19:09.04,IMU,-56.15,28.81,981.93,-0.06,0.33,-0.76,-86.40,13.95,-210.30,30.0
2026/05/20 21:19:09.14,IMU,-69.82,26.86,1003.91,-0.30,1.74,-0.80,-85.65,14.70,-212.85,29.8
2026/05/20 21:19:09.25,IMU,-61.04,26.37,1004.88,0.37,0.27,-1.61,-87.15,14.70,-212.55,30.1
2026/05/20 21:19:09.35,IMU,-41.50,28.32,991.70,0.18,-0.92,1.82,-86.40,13.20,-211.80,30.1
2026/05/20 21:19:09.46,IMU,-48.34,30.76,1000.98,0.02,0.50,1.26,-89.55,12.60,-209.10,30.3
2026/05/20 21:19:09.57,IMU,-52.73,28.32,990.72,-0.01,-0.37,-0.05,-85.65,12.90,-211.05,29.8
2026/05/20 21:19:09.67,IMU,-52.73,36.13,1001.46,-0.71,-2.27,0.03,-85.80,14.10,-210.90,30.0
2026/05/20 21:19:09.77,IMU,-57.13,17.09,997.07,-0.63,1.73,-0.20,-86.70,13.95,-211.50,29.9
2026/05/20 21:19:09.87,IMU,-54.69,41.50,1001.95,1.95,0.38,0.23,-86.25,14.85,-212.70,30.2
2026/05/20 21:19:09.97,IMU,-47.36,24.90,994.14,-0.22,0.23,1.13,-88.05,14.55,-212.40,29.9
2026/05/20 21:19:10.07,IMU,-47.85,30.76,997.07,-0.98,0.53,0.23,-87.15,14.70,-211.50,29.6
2026/05/20 21:19:10.17,IMU,-46.39,33.20,983.89,-0.65,-1.34,-0.19,-88.05,13.80,-210.15,30.0
2026/05/20 21:19:10.27,IMU,-42.97,24.41,991.21,-0.88,-0.66,3.09,-87.90,13.95,-211.50,30.1
2026/05/20 21:19:10.40,IMU,-59.57,38.09,1000.49,-1.31,0.44,-2.67,-85.65,13.95,-211.50,30.2
2026/05/20 21:19:10.50,IMU,-51.76,27.83,1000.00,0.93,-2.00,2.09,-88.95,12.90,-209.25,30.1
2026/05/20 21:19:10.60,IMU,-56.15,32.71,1000.49,-0.59,-3.69,1.53,-86.70,12.90,-210.75,30.0
2026/05/20 21:19:10.70,IMU,-32.23,34.67,992.68,-0.91,0.73,1.29,-86.70,13.65,-210.30,30.0
2026/05/20 21:19:10.80,IMU,-44.43,32.23,984.86,-0.36,1.00,-1.51,-86.55,14.55,-211.95,30.1
2026/05/20 21:19:10.90,IMU,-50.78,32.23,999.51,-0.81,-1.42,0.51,-87.00,14.10,-210.60,30.0
2026/05/20 21:19:11.00,IMU,-40.53,35.16,997.07,-1.76,0.44,-0.90,-85.65,15.15,-210.30,30.1
2026/05/20 21:19:11.10,IMU,-49.32,33.20,999.02,-0.63,1.09,0.66,-86.55,13.80,-211.20,29.8
2026/05/20 21:19:11.20,IMU,-56.15,24.90,995.12,-0.42,-0.08,-0.33,-87.75,13.80,-211.65,30.0
2026/05/20 21:19:11.30,IMU,-45.90,15.63,1005.37,0.08,0.49,-0.30,-86.70,14.40,-211.05,30.0
2026/05/20 21:19:11.40,IMU,-59.57,23.44,987.30,-1.68,-1.98,0.56,-86.10,13.95,-212.10,30.2
2026/05/20 21:19:11.51,IMU,-58.59,18.55,998.05,-0.91,-0.05,0.82,-91.05,11.55,-205.80,30.2
2026/05/20 21:19:11.61,IMU,-50.78,33.20,989.26,-0.30,0.08,1.15,-87.75,14.10,-211.65,30.2
2026/05/20 21:19:11.71,IMU,-38.57,12.21,993.16,-0.08,-0.48,1.49,-87.75,13.80,-210.60,30.3
2026/05/20 21:19:11.81,IMU,-48.83,18.07,981.45,-2.08,0.41,2.69,-87.00,12.60,-210.60,30.3
2026/05/20 21:19:11.91,IMU,-57.13,37.60,1000.98,-1.27,1.11,-1.15,-87.90,15.45,-211.05,30.3
2026/05/20 21:19:12.01,IMU,-55.18,22.46,993.16,-1.19,-0.73,0.63,-86.40,13.65,-211.05,30.4
2026/05/20 21:19:12.12,IMU,-61.52,18.55,994.14,-1.80,0.64,-1.21,-87.15,13.65,-211.50,29.8
2026/05/20 21:19:12.22,IMU,-56.15,22.46,1002.44,-0.77,-1.83,0.47,-88.35,14.55,-212.40,30.2
2026/05/20 21:19:12.32,IMU,-52.73,26.37,989.75,-0.71,0.55,-1.44,-86.40,14.40,-211.80,30.0
2026/05/20 21:19:12.43,IMU,-49.32,41.50,996.09,-0.13,1.31,1.17,-85.35,14.70,-212.55,30.2
2026/05/20 21:19:12.53,IMU,-47.85,24.41,989.75,0.48,0.42,2.03,-91.20,12.90,-207.90,30.3
2026/05/20 21:19:12.64,IMU,-59.08,29.79,999.51,0.26,-0.63,2.34,-86.70,14.70,-211.50,30.0
2026/05/20 21:19:12.74,IMU,-52.73,8.79,997.56,-0.87,-0.14,0.82,-88.35,12.60,-208.35,29.9
2026/05/20 21:19:12.84,IMU,-52.25,42.48,988.28,-0.95,1.84,2.04,-85.35,14.40,-211.50,30.3
2026/05/20 21:19:12.94,IMU,-54.69,22.46,998.05,0.11,-2.08,-0.89,-86.10,13.95,-211.80,29.9
2026/05/20 21:19:13.04,IMU,-53.22,19.53,991.70,-2.43,0.22,-0.95,-88.95,14.70,-211.05,29.8
2026/05/20 21:19:13.14,IMU,-60.55,42.48,990.23,-2.56,1.70,0.34,-86.70,13.20,-210.30,30.2
2026/05/20 21:19:13.24,IMU,-52.73,25.39,980.96,-0.67,-1.58,0.31,-87.15,13.95,-210.75,30.3
2026/05/20 21:19:13.34,IMU,-56.64,24.90,996.58,0.07,-0.62,-0.56,-85.80,14.55,-211.95,30.1
2026/05/20 21:19:13.44,IMU,-54.20,39.06,986.33,-0.33,-0.01,1.89,-86.70,14.40,-210.30,29.9
2026/05/20 21:19:13.59,IMU,-47.85,21.97,993.16,0.14,2.87,-0.55,-87.75,11.85,-210.15,30.0
2026/05/20 21:19:13.69,IMU,-49.80,30.27,999.02,-0.73,-0.69,0.73,-88.05,13.80,-210.90,29.9
2026/05/20 21:19:13.79,IMU,-52.25,18.55,1006.35,-1.22,-0.28,0.59,-86.55,13.35,-210.60,30.0
2026/05/20 21:19:13.89,IMU,-56.64,26.37,1010.25,-1.38,1.66,0.65,-87.15,13.95,-211.50,30.3
2026/05/20 21:19:14.00,IMU,-51.76,26.86,997.56,0.21,0.73,-0.94,-87.00,12.60,-210.90,30.1
2026/05/20 21:19:14.10,IMU,-53.71,28.81,993.65,-2.62,-0.81,0.73,-88.20,14.70,-210.75,30.1
2026/05/20 21:19:14.20,IMU,-54.69,14.65,998.05,-0.90,-0.68,-0.46,-87.75,12.60,-209.85,30.2
2026/05/20 21:19:14.30,IMU,-48.34,31.74,991.70,0.21,0.23,-0.28,-87.15,15.45,-210.75,30.2
2026/05/20 21:19:14.40,IMU,-53.71,28.81,985.84,0.69,-0.86,1.29,-87.30,14.55,-211.65,30.1
2026/05/20 21:19:14.50,IMU,-55.66,27.83,980.47,-0.22,-0.49,0.13,-86.70,14.70,-212.55,30.3
2026/05/20 21:19:14.60,IMU,-46.88,24.90,993.16,-0.63,1.63,-0.40,-87.30,13.05,-212.70,29.8
2026/05/20 21:19:14.70,IMU,-50.29,25.39,1004.88,-1.57,-2.25,1.48,-87.00,12.60,-210.60,30.1
2026/05/20 21:19:14.80,IMU,-68.85,35.64,991.21,-0.68,0.77,2.12,-88.65,14.70,-211.05,29.9
2026/05/20 21:19:14.90,IMU,-59.08,24.90,996.58,-1.04,1.08,-0.86,-85.80,13.80,-211.65,29.9
2026/05/20 21:19:15.00,IMU,-51.27,24.90,999.02,0.33,-0.67,1.64,-87.45,13.20,-211.80,30.3
2026/05/20 21:19:15.10,IMU,-53.71,40.53,994.14,0.93,-1.31,-1.98,-87.75,14.55,-210.15,30.1
2026/05/20 21:19:15.20,IMU,-50.78,32.71,1011.23,-1.64,1.00,0.64,-87.45,13.65,-211.80,29.9
2026/05/20 21:19:15.31,IMU,-58.59,15.14,988.77,-1.98,-0.49,-0.16,-87.15,13.65,-211.05,30.1
2026/05/20 21:19:15.41,IMU,-63.48,20.02,1002.44,-0.31,-1.42,0.69,-86.70,14.70,-210.75,30.4
2026/05/20 21:19:15.52,IMU,-55.66,28.32,1001.46,-0.36,-1.03,3.22,-86.25,13.80,-211.20,30.1
2026/05/20 21:19:15.62,IMU,-50.29,36.13,994.63,-1.21,-1.35,2.31,-87.15,12.15,-211.50,30.3
2026/05/20 21:19:15.72,IMU,-59.57,27.83,996.58,-0.81,1.66,-1.27,-87.90,14.70,-210.75,29.9
2026/05/20 21:19:15.82,IMU,-60.55,31.74,993.16,0.42,0.15,2.08,-85.65,14.70,-211.50,30.3
2026/05/20 21:19:15.92,IMU,-55.66,26.86,985.35,-0.73,-1.05,-0.89,-86.25,14.55,-211.20,30.0
2026/05/20 21:19:16.02,IMU,-51.76,31.74,1003.91,-1.49,2.08,3.50,-87.15,14.70,-211.50,29.9
2026/05/20 21:19:16.12,IMU,-55.66,31.25,1009.77,-1.62,0.73,-0.25,-85.80,16.05,-211.95,30.1
2026/05/20 21:19:16.22,IMU,-62.50,19.53,997.07,-0.40,-0.95,2.26,-90.75,13.20,-208.50,30.0
2026/05/20 21:19:16.32,IMU,-46.88,16.60,1000.00,-2.05,0.16,1.31,-86.40,14.40,-211.05,30.2
2026/05/20 21:19:16.42,IMU,-49.80,31.74,993.65,-0.15,-1.47,1.63,-87.30,13.80,-209.10,29.9
2026/05/20 21:19:16.52,IMU,-41.02,36.13,999.51,-0.79,1.88,2.13,-86.70,12.45,-212.10,30.3
2026/05/20 21:19:16.62,IMU,-61.52,38.09,997.56,-0.73,0.79,3.38,-86.70,15.15,-210.00,30.1
2026/05/20 21:19:16.74,IMU,-49.80,34.18,1005.37,-0.43,0.58,0.25,-87.45,15.15,-211.50,30.0
2026/05/20 21:19:16.84,IMU,-66.89,17.09,995.61,-0.67,0.02,-0.85,-87.15,13.65,-210.00,30.5
2026/05/20 21:19:16.94,IMU,-42.48,30.76,1019.53,1.18,-1.66,-0.76,-86.40,14.40,-211.80,30.1
2026/05/20 21:19:17.06,IMU,-47.36,40.04,1000.98,-2.05,1.24,1.37,-87.30,13.05,-211.20,30.0
2026/05/20 21:19:17.16,IMU,-65.92,28.32,988.28,0.09,-0.63,2.44,-87.90,13.95,-211.05,30.2
2026/05/20 21:19:17.26,IMU,-66.41,21.48,1002.93,0.77,1.07,-1.25,-86.55,14.10,-212.40,30.2
2026/05/20 21:19:17.37,IMU,-60.55,23.44,998.54,-1.21,0.53,1.56,-85.05,14.85,-212.70,30.0
2026/05/20 21:19:17.47,IMU,-57.62,26.37,994.14,-0.70,0.13,0.11,-86.55,15.75,-212.40,30.3
2026/05/20 21:19:17.57,IMU,-63.96,23.44,992.19,0.05,1.38,1.69,-86.55,14.55,-211.20,30.0
2026/05/20 21:19:17.67,IMU,-45.41,26.37,995.61,-0.79,0.89,1.79,-87.15,14.40,-212.55,30.3
2026/05/20 21:19:17.77,IMU,-52.25,28.32,992.19,-0.98,-0.39,-0.02,-86.55,13.80,-211.65,30.2
2026/05/20 21:19:17.87,IMU,-41.02,29.79,993.65,-0.70,0.31,-0.76,-86.70,13.20,-211.50,30.2
2026/05/20 21:19:17.97,IMU,-60.06,39.06,990.72,0.06,0.77,-0.18,-87.30,14.10,-209.85,30.2
2026/05/20 21:19:18.07,IMU,-61.52,24.90,1006.35,-0.91,0.65,1.79,-87.75,13.80,-211.65,30.5
2026/05/20 21:19:18.17,IMU,-38.09,24.90,988.77,-1.10,0.78,-0.28,-87.75,14.55,-211.65,29.8
2026/05/20 21:19:18.27,IMU,-49.32,48.83,1003.91,-2.90,-2.23,0.66,-86.40,13.95,-211.05,30.2
2026/05/20 21:19:18.37,IMU,-46.88,22.46,992.68,1.18,1.08,0.35,-85.65,13.65,-210.75,30.4
2026/05/20 21:19:18.47,IMU,-58.59,32.23,982.42,-1.26,0.18,-0.52,-87.15,14.70,-211.80,30.0
2026/05/20 21:19:18.57,IMU,-39.55,35.64,971.19,-1.69,0.73,0.86,-85.35,13.95,-213.30,30.0
2026/05/20 21:19:18.67,IMU,-52.25,29.30,991.21,-0.99,0.60,0.21,-85.80,13.35,-211.20,30.3
2026/05/20 21:19:18.80,IMU,-54.69,29.79,994.14,-0.75,-0.11,-0.23,-89.40,13.95,-211.05,30.0
2026/05/20 21:19:18.90,IMU,-66.41,13.18,982.91,-1.27,-0.17,1.62,-86.10,14.40,-210.00,30.0
2026/05/20 21:19:19.00,IMU,-64.45,38.57,1002.93,-2.04,0.84,0.27,-85.65,13.65,-211.05,30.1
2026/05/20 21:19:19.10,IMU,-60.06,29.30,1009.28,0.98,-1.79,0.10,-88.95,10.50,-208.95,30.2
2026/05/20 21:19:19.20,IMU,-61.52,25.39,986.82,-0.39,-0.75,0.41,-86.40,13.65,-211.50,30.2
2026/05/20 21:19:19.30,IMU,-48.83,27.83,998.54,-1.03,2.54,0.79,-86.70,14.40,-212.10,30.3
2026/05/20 21:19:19.40,IMU,-71.29,26.86,1006.84,-1.38,0.38,1.57,-87.30,14.85,-210.15,30.3
2026/05/20 21:19:19.50,IMU,-44.43,15.63,1000.00,-0.58,-0.68,-1.72,-86.40,14.70,-211.05,30.3
2026/05/20 21:19:19.60,IMU,-49.32,29.79,993.16,-0.51,-0.36,-1.97,-87.45,14.40,-210.75,30.3
2026/05/20 21:19:19.70,IMU,-68.36,21.97,997.56,-2.23,1.59,0.25,-87.30,14.10,-212.40,30.3
2026/05/20 21:19:19.80,IMU,-55.18,8.30,996.09,-0.52,-1.24,1.53,-86.40,12.90,-211.50,30.3
2026/05/20 21:19:19.91,IMU,-47.36,25.88,992.68,-0.69,2.56,-0.24,-87.00,15.75,-210.90,30.3
2026/05/20 21:19:20.01,IMU,-61.04,28.81,1007.32,-2.83,-1.19,1.56,-86.40,13.65,-211.05,30.3
2026/05/20 21:19:20.11,IMU,-56.64,23.93,988.28,-0.76,-0.08,-0.05,-88.05,16.05,-211.20,30.0
2026/05/20 21:19:20.21,IMU,-51.76,27.83,1004.88,1.05,-1.53,1.48,-87.15,14.70,-211.05,30.4
2026/05/20 21:19:20.31,IMU,-54.20,31.25,999.51,-2.47,1.64,0.27,-87.15,13.20,-211.05,30.5
2026/05/20 21:19:20.41,IMU,-53.22,31.25,1000.49,-0.36,-0.06,0.66,-86.10,14.40,-210.30,30.1
2026/05/20 21:19:20.52,IMU,-47.85,28.32,998.54,-0.49,0.49,-0.37,-86.10,15.15,-210.30,30.2
2026/05/20 21:19:20.62,IMU,-52.25,47.36,983.40,0.71,0.89,1.92,-86.70,13.20,-211.80,29.9
2026/05/20 21:19:20.72,IMU,-54.20,31.25,1005.86,-0.85,1.24,-1.02,-86.70,14.70,-210.75,30.2
2026/05/20 21:19:20.82,IMU,-54.20,36.62,983.40,-0.83,0.76,1.19,-86.40,13.65,-211.80,30.2
2026/05/20 21:19:20.92,IMU,-60.06,29.79,993.16,-1.94,2.26,1.73,-87.00,13.80,-211.95,30.0
2026/05/20 21:19:21.02,IMU,-53.22,12.70,1000.49,0.02,0.34,0.33,-87.75,13.05,-211.20,30.3
2026/05/20 21:19:21.12,IMU,-52.25,38.09,998.54,-1.02,1.26,1.36,-87.00,16.80,-211.65,30.4
2026/05/20 21:19:21.22,IMU,-43.95,18.55,992.68,-0.77,-0.37,-0.40,-86.40,14.40,-211.80,30.4
2026/05/20 21:19:21.32,IMU,-64.94,38.09,995.61,0.59,0.44,-0.54,-87.30,14.10,-211.65,30.3
2026/05/20 21:19:21.42,IMU,-63.96,32.23,1001.95,0.71,0.48,1.78,-87.15,13.95,-211.05,30.0
2026/05/20 21:19:21.52,IMU,-46.39,23.44,992.19,-1.39,1.34,0.22,-87.15,15.45,-211.50,30.3
2026/05/20 21:19:21.62,IMU,-50.29,21.48,1000.49,-0.07,-0.79,2.05,-87.45,14.70,-210.30,30.3
2026/05/20 21:19:21.72,IMU,-62.50,24.90,1007.32,-1.91,-1.87,0.93,-85.80,14.10,-211.20,30.3
2026/05/20 21:19:21.82,IMU,-53.71,31.25,1008.30,-1.97,-0.65,2.18,-88.35,11.85,-208.35,30.1
2026/05/20 21:19:21.93,IMU,-52.25,23.44,990.23,0.10,0.09,-2.71,-85.50,15.30,-212.40,30.2
2026/05/20 21:19:22.03,IMU,-49.80,34.18,995.12,-0.74,2.58,0.25,-86.25,13.35,-212.70,29.9
2026/05/20 21:19:22.13,IMU,-56.15,18.55,981.93,-1.75,0.52,-1.66,-87.15,14.70,-211.50,30.1
2026/05/20 21:19:22.24,IMU,-50.78,25.39,997.07,-0.15,-0.40,1.09,-87.75,14.55,-211.95,30.3
2026/05/20 21:19:22.34,IMU,-52.73,26.37,1002.44,-1.69,1.68,-0.22,-86.10,13.20,-210.75,30.1
2026/05/20 21:19:22.44,IMU,-55.66,33.20,995.61,-1.61,1.68,1.44,-85.80,14.55,-210.60,30.4
2026/05/20 21:19:22.55,IMU,-68.85,19.04,993.16,-0.51,-0.88,0.48,-86.70,13.65,-212.55,30.4
2026/05/20 21:19:22.65,IMU,-56.64,18.55,1005.37,-0.63,-1.60,1.16,-86.10,14.40,-210.00,30.2
2026/05/20 21:19:22.75,IMU,-47.85,31.25,994.63,0.95,-1.44,0.07,-86.70,13.95,-212.85,30.2
2026/05/20 21:19:22.85,IMU,-59.57,16.11,989.75,-2.22,-1.15,-1.58,-87.15,13.95,-210.30,30.4
2026/05/20 21:19:22.95,IMU,-54.69,26.86,1005.37,-0.86,-0.02,0.98,-86.70,14.70,-211.05,30.4
2026/05/20 21:19:23.05,IMU,-49.80,28.81,984.86,0.60,0.47,-2.68,-87.15,14.40,-210.00,30.3
2026/05/20 21:19:23.16,IMU,-39.55,23.93,990.72,-1.15,0.76,-1.55,-86.70,14.40,-211.50,30.0
2026/05/20 21:19:23.26,IMU,-55.18,30.76,1000.49,-0.45,-2.01,1.47,-85.50,13.35,-211.95,30.3
2026/05/20 21:19:23.36,IMU,-42.97,30.76,992.19,-1.29,1.95,-0.21,-87.75,13.80,-211.65,30.1
2026/05/20 21:19:23.46,IMU,-45.41,35.64,977.05,-0.85,-0.95,0.87,-87.45,13.65,-212.55,30.2
2026/05/20 21:19:23.56,IMU,-52.25,38.09,1000.98,-0.85,-2.67,-0.79,-86.10,13.95,-210.75,30.1
2026/05/20 21:19:23.66,IMU,-52.73,14.65,989.75,-1.91,1.27,-0.70,-88.05,14.10,-210.60,30.3
2026/05/20 21:19:23.76,IMU,-50.78,31.25,993.65,1.32,0.56,0.17,-86.55,14.55,-211.20,30.3
2026/05/20 21:19:23.86,IMU,-51.27,32.23,993.16,-1.30,-0.76,1.53,-86.70,15.15,-211.05,29.9
2026/05/20 21:19:23.99,IMU,-58.11,34.67,999.02,-1.93,-1.80,2.21,-86.10,14.70,-211.05,30.2
2026/05/20 21:19:24.09,IMU,-58.11,32.71,997.07,-1.77,0.64,2.22,-87.45,13.20,-210.75,29.9
2026/05/20 21:19:24.19,IMU,-53.71,15.63,1005.37,-1.26,0.32,1.89,-87.00,14.55,-211.95,30.3
2026/05/20 21:19:24.29,IMU,-41.02,34.18,991.21,-1.56,1.12,-0.50,-87.30,13.80,-210.60,30.2
2026/05/20 21:19:24.39,IMU,-62.99,30.76,1004.39,-2.39,-1.37,0.55,-87.30,14.55,-211.95,30.1
2026/05/20 21:19:24.49,IMU,-48.83,23.93,997.07,-0.15,-1.16,1.79,-85.65,15.15,-210.00,30.3
2026/05/20 21:19:24.59,IMU,-55.66,36.13,1005.86,-0.59,0.12,1.64,-89.70,12.90,-207.45,29.9
2026/05/20 21:19:24.69,IMU,-48.34,26.37,997.07,-1.83,-1.26,3.15,-86.55,14.55,-211.20,30.0
2026/05/20 21:19:24.79,IMU,-52.73,26.86,995.12,-0.72,0.89,1.01,-87.75,14.10,-210.90,29.8
2026/05/20 21:19:24.89,IMU,-50.78,31.25,1010.25,-2.07,-0.52,-0.71,-87.00,14.10,-209.40,29.8
2026/05/20 21:19:24.99,IMU,-47.85,25.88,994.63,0.44,-1.15,0.52,-86.55,14.55,-212.40,30.1
2026/05/20 21:19:25.12,IMU,-47.85,34.67,995.61,-2.14,1.88,0.05,-88.05,12.60,-210.90,30.1
2026/05/20 21:19:25.22,IMU,-51.76,13.18,997.56,-0.34,1.29,1.45,-86.55,14.10,-211.20,30.1
2026/05/20 21:19:25.32,IMU,-59.57,28.81,992.68,-1.79,-1.39,1.21,-88.20,14.40,-211.80,29.9
2026/05/20 21:19:25.42,IMU,-60.55,21.00,993.65,-0.53,-0.91,1.64,-86.70,15.15,-210.30,29.8
2026/05/20 21:19:25.52,IMU,-57.62,25.39,990.23,-0.31,-1.08,-1.35,-87.15,14.70,-212.10,29.8
2026/05/20 21:19:25.62,IMU,-61.04,17.58,986.82,-1.45,-2.24,-0.70,-86.55,13.05,-210.60,30.1
2026/05/20 21:19:25.72,IMU,-46.88,24.41,999.02,0.51,-1.45,-2.54,-89.10,13.35,-208.05,30.1
2026/05/20 21:19:25.83,IMU,-42.48,26.37,988.28,0.85,0.21,1.16,-86.55,14.10,-211.95,30.3
2026/05/20 21:19:25.93,IMU,-61.52,3.42,979.49,-1.31,0.97,1.18,-87.30,13.35,-210.90,30.2
2026/05/20 21:19:26.03,IMU,-51.27,20.51,994.14,-0.24,-1.96,2.18,-86.25,15.30,-210.90,30.1
2026/05/20 21:19:26.13,IMU,-44.92,24.90,998.05,0.47,-0.66,-1.71,-86.40,14.40,-210.75,30.1
2026/05/20 21:19:26.23,IMU,-59.57,28.81,1000.98,-1.48,0.66,1.50,-87.30,12.60,-210.90,29.9
2026/05/20 21:19:26.33,IMU,-55.66,27.34,991.70,-0.46,-0.02,-0.31,-87.45,14.40,-211.50,29.8
2026/05/20 21:19:26.43,IMU,-58.59,25.39,998.05,-0.11,-2.07,-0.14,-86.10,13.65,-211.50,29.8
2026/05/20 21:19:26.57,IMU,-52.73,15.63,995.61,-1.35,0.63,0.57,-87.00,14.85,-212.70,30.1
2026/05/20 21:19:26.67,IMU,-47.85,34.67,991.70,-1.71,0.60,0.69,-86.70,14.70,-211.05,29.9
2026/05/20 21:19:26.77,IMU,-42.97,28.81,996.09,-0.39,-0.31,-0.34,-86.55,14.10,-211.20,29.9
2026/05/20 21:19:26.87,IMU,-41.50,35.64,990.23,-1.02,-0.58,2.15,-87.15,15.45,-211.50,30.0
2026/05/20 21:19:26.97,IMU,-49.32,25.39,989.75,-2.14,2.66,-0.53,-87.00,13.80,-210.15,30.0
2026/05/20 21:19:27.07,IMU,-56.64,41.50,980.96,-1.14,0.66,-0.67,-86.25,15.30,-210.90,29.9
2026/05/20 21:19:27.17,IMU,-54.69,37.11,1002.44,-0.92,-1.75,3.17,-86.40,15.15,-211.05,29.9
2026/05/20 21:19:27.27,IMU,-48.83,32.23,998.54,1.67,3.45,-0.67,-88.05,14.10,-212.70,29.9
2026/05/20 21:19:27.37,IMU,-56.64,49.32,998.05,-0.92,2.42,0.47,-86.70,14.40,-210.75,29.9
2026/05/20 21:19:27.47,IMU,-55.66,34.67,989.26,-0.52,-0.44,-0.42,-87.15,14.40,-212.10,29.6
2026/05/20 21:19:27.57,IMU,-54.20,26.86,987.79,-0.23,1.34,-0.98,-87.75,13.80,-211.65,29.8
2026/05/20 21:19:27.67,IMU,-55.18,27.34,1002.44,0.15,1.21,-0.86,-86.25,16.80,-211.65,29.8
2026/05/20 21:19:27.77,IMU,-71.29,21.00,1002.44,-1.64,2.27,0.38,-86.55,13.35,-210.60,29.8
2026/05/20 21:19:27.87,IMU,-58.59,29.30,991.70,-0.47,-0.28,0.05,-87.00,14.55,-211.20,29.8
2026/05/20 21:19:28.00,IMU,-52.73,26.37,987.79,-0.51,-0.19,0.45,-85.80,13.35,-211.95,29.8
2026/05/20 21:19:28.10,IMU,-64.45,21.48,983.89,-0.85,3.44,-0.24,-86.40,13.95,-211.80,30.1
2026/05/20 21:19:28.20,IMU,-46.39,27.83,997.07,-0.08,0.32,2.46,-84.60,13.95,-210.75,30.0
2026/05/20 21:19:28.30,IMU,-67.38,24.90,1005.37,-1.57,1.27,-1.76,-87.75,13.80,-211.95,29.9
2026/05/20 21:19:28.40,IMU,-57.13,38.57,1000.98,-1.68,-2.48,1.69,-87.75,13.80,-211.20,29.9
2026/05/20 21:19:28.50,IMU,-57.13,30.27,997.56,-1.80,-1.21,-1.39,-87.15,14.40,-211.80,29.8
2026/05/20 21:19:28.60,IMU,-62.99,29.79,999.51,-0.75,-0.53,0.31,-91.05,13.05,-208.05,29.9
2026/05/20 21:19:28.70,IMU,-52.25,40.04,987.79,-0.40,3.13,0.37,-87.75,14.85,-210.60,29.8
2026/05/20 21:19:28.80,IMU,-51.76,19.53,997.56,-1.64,-0.77,0.96,-87.45,13.95,-212.85,29.9
2026/05/20 21:19:28.90,IMU,-50.29,13.67,982.42,-0.96,0.54,-1.53,-86.10,13.65,-211.50,29.9
2026/05/20 21:19:29.00,IMU,-58.59,15.14,1002.44,-2.32,-0.34,2.31,-86.70,13.95,-211.50,30.0
2026/05/20 21:19:29.10,IMU,-45.90,34.67,994.63,-0.66,-0.79,-1.27,-87.00,13.35,-211.20,30.0
2026/05/20 21:19:29.20,IMU,-45.90,21.97,1000.00,-0.49,0.76,-1.38,-88.20,12.45,-210.75,29.8
2026/05/20 21:19:29.30,IMU,-58.59,26.37,985.84,-0.50,-0.11,1.36,-87.30,13.80,-211.65,29.8
2026/05/20 21:19:29.40,IMU,-62.50,28.81,995.12,1.27,1.22,1.63,-87.15,14.40,-211.50,29.9
2026/05/20 21:19:29.50,IMU,-51.27,32.23,1000.49,-0.77,-0.53,0.95,-85.35,15.15,-211.50,29.8
2026/05/20 21:19:29.60,IMU,-43.46,29.30,998.54,-0.47,-0.69,-0.88,-87.00,15.30,-211.20,30.0
2026/05/20 21:19:29.71,IMU,-44.43,18.55,1009.28,-0.55,1.40,-0.83,-86.40,14.70,-211.50,29.9
2026/05/20 21:19:29.81,IMU,-67.38,38.57,1008.30,-1.16,-1.73,4.27,-86.70,13.20,-212.10,29.9
2026/05/20 21:19:29.91,IMU,-68.85,29.79,993.16,0.77,0.10,0.68,-88.05,13.05,-210.90,29.9
2026/05/20 21:19:30.01,IMU,-57.62,26.37,1009.28,0.21,-2.33,-2.02,-86.40,12.45,-211.80,29.8
2026/05/20 21:19:30.11,IMU,-59.08,31.25,985.35,-1.50,1.05,-0.33,-85.35,13.95,-211.80,29.8
2026/05/20 21:19:30.21,IMU,-45.90,32.71,1000.98,0.37,-0.73,0.72,-87.90,14.70,-211.50,29.9
2026/05/20 21:19:30.31,IMU,-44.92,26.86,1003.42,-1.45,-0.91,0.31,-87.45,12.90,-211.50,29.8
2026/05/20 21:19:30.42,IMU,-59.57,28.81,987.79,-3.08,-2.18,-2.76,-87.15,14.70,-212.85,29.8
2026/05/20 21:19:30.52,IMU,-55.18,42.48,994.14,0.74,0.76,-3.94,-87.15,13.20,-210.75,29.8
2026/05/20 21:19:30.62,IMU,-50.78,16.11,1009.77,-0.17,0.30,3.03,-91.05,13.05,-209.40,29.9
2026/05/20 21:19:30.72,IMU,-57.62,24.41,987.79,0.13,0.15,2.70,-86.70,13.20,-212.10,30.0
2026/05/20 21:19:30.82,IMU,-57.62,35.16,1016.60,-0.15,0.71,2.89,-87.15,14.70,-211.05,29.7
2026/05/20 21:19:30.92,IMU,-56.64,19.53,1004.88,-2.21,1.16,1.20,-87.45,13.95,-212.10,29.9
2026/05/20 21:19:31.02,IMU,-45.90,26.37,991.21,-0.90,0.95,1.43,-88.80,13.35,-208.80,30.1
2026/05/20 21:19:31.12,IMU,-44.43,34.67,987.30,-1.47,1.09,1.47,-87.00,13.80,-212.40,29.8
2026/05/20 21:19:31.22,IMU,-54.69,32.71,990.72,-0.32,-1.85,2.30,-86.25,15.30,-212.70,29.9
2026/05/20 21:19:31.32,IMU,-47.36,7.32,984.86,-1.40,-1.11,0.21,-88.05,15.30,-210.60,29.8
2026/05/20 21:19:31.42,IMU,-90.33,128.42,957.52,73.40,62.97,9.80,-85.35,15.45,-212.55,30.0
2026/05/20 21:19:31.52,IMU,-181.64,260.74,1220.70,-3.12,0.86,0.45,-85.35,17.70,-214.35,29.9
2026/05/20 21:19:31.62,IMU,-154.30,60.06,1004.88,15.96,10.69,9.25,-85.05,17.25,-214.50,29.9
2026/05/20 21:19:31.73,IMU,-121.58,190.92,937.01,13.80,53.26,5.59,-83.40,18.15,-216.15,30.1
2026/05/20 21:19:31.83,IMU,-211.43,207.03,1050.78,14.17,-16.33,-1.79,-82.35,20.10,-215.10,30.0
2026/05/20 21:19:31.93,IMU,-26.37,479.00,1031.74,20.03,41.92,17.28,-82.50,19.50,-218.10,30.0
2026/05/20 21:19:32.05,IMU,-220.70,289.06,1070.80,-45.38,26.30,43.23,-84.60,18.90,-215.70,29.9
2026/05/20 21:19:32.15,IMU,-335.45,81.05,932.62,-36.53,-34.41,-9.50,-82.50,17.25,-214.50,29.9
2026/05/20 21:19:32.25,IMU,-89.84,211.91,1099.61,-45.18,-51.97,4.48,-85.05,16.50,-213.00,29.8
2026/05/20 21:19:32.36,IMU,168.46,-62.99,1100.59,-34.90,-43.24,71.82,-88.35,13.05,-211.65,29.9
2026/05/20 21:19:32.46,IMU,37.60,70.80,990.72,-13.77,-4.85,102.09,-93.45,11.70,-209.70,29.9
2026/05/20 21:19:32.57,IMU,-133.30,-41.02,969.24,-22.47,-15.00,73.74,-95.10,8.10,-210.90,29.9
2026/05/20 21:19:32.67,IMU,-109.86,-112.79,770.02,-38.00,6.79,29.58,-96.00,5.55,-211.05,29.9
2026/05/20 21:19:32.77,IMU,-149.90,-62.99,832.52,6.71,22.92,42.18,-96.15,2.40,-208.05,29.9
2026/05/20 21:19:32.87,IMU,-237.30,-39.55,855.47,23.66,57.66,25.60,-94.65,5.10,-206.85,29.6
2026/05/20 21:19:32.97,IMU,-348.14,-50.78,935.55,2.68,11.57,27.07,-91.35,6.90,-205.80,29.8
2026/05/20 21:19:33.07,IMU,-234.38,19.53,895.51,10.11,20.78,16.04,-91.95,6.00,-204.90,30.0
2026/05/20 21:19:33.17,IMU,-346.19,10.74,963.87,4.68,24.78,33.79,-91.35,6.60,-204.00,30.3
2026/05/20 21:19:33.27,IMU,-374.02,91.31,958.50,6.08,0.17,30.97,-90.15,6.75,-204.90,29.7
2026/05/20 21:19:33.37,IMU,-393.07,37.60,941.89,8.00,2.42,16.15,-90.45,6.00,-204.15,29.8
2026/05/20 21:19:33.47,IMU,-320.31,50.78,959.47,-0.10,-9.78,5.65,-90.45,7.50,-205.35,29.9
2026/05/20 21:19:33.57,IMU,-309.08,4.39,985.84,-2.33,8.97,6.21,-91.35,6.60,-204.00,30.2
2026/05/20 21:19:33.67,IMU,-319.82,52.25,991.21,-1.26,3.06,9.41,-91.80,6.15,-203.25,29.9
2026/05/20 21:19:33.79,IMU,-281.74,74.22,944.82,0.95,-6.17,7.90,-91.20,5.55,-203.10,29.9
2026/05/20 21:19:33.89,IMU,-283.69,28.81,946.78,4.77,-2.39,7.87,-92.25,6.75,-205.35,29.6
2026/05/20 21:19:34.00,IMU,-292.48,46.39,952.15,-1.38,1.95,5.69,-90.45,7.20,-205.95,29.9
2026/05/20 21:19:34.10,IMU,-319.82,45.90,958.01,-4.26,10.66,2.43,-92.70,6.45,-201.75,30.1
2026/05/20 21:19:34.20,IMU,-286.13,67.87,972.17,-0.11,-1.00,-2.04,-92.25,7.50,-203.85,29.8
2026/05/20 21:19:34.30,IMU,-317.38,77.64,958.50,-0.21,-3.19,8.48,-91.80,5.85,-205.05,29.8
2026/05/20 21:19:34.40,IMU,-308.59,69.82,974.12,1.29,6.31,0.39,-95.25,4.50,-199.20,30.1
2026/05/20 21:19:34.50,IMU,-279.30,106.93,967.77,9.74,-17.18,-2.02,-92.10,7.35,-205.50,29.8
2026/05/20 21:19:34.60,IMU,-315.43,65.92,958.50,-5.28,8.56,5.83,-91.80,6.90,-204.75,29.8
2026/05/20 21:19:34.70,IMU,-285.16,72.75,973.63,-4.73,0.07,-3.51,-92.85,7.35,-205.05,29.7
2026/05/20 21:19:34.80,IMU,-285.16,75.20,951.17,-1.65,3.08,3.79,-93.45,8.25,-204.15,29.9
2026/05/20 21:19:34.90,IMU,-296.88,89.36,954.59,-0.41,5.74,2.79,-91.50,8.70,-204.60,30.1
2026/05/20 21:19:35.00,IMU,-301.76,97.66,961.91,6.47,-3.81,4.95,-95.55,5.55,-201.00,30.0
2026/05/20 21:19:35.10,IMU,-332.52,91.31,957.52,3.88,3.22,1.22,-96.00,5.55,-200.55,29.8
2026/05/20 21:19:35.20,IMU,-279.79,96.68,930.18,1.78,-2.58,0.75,-93.15,8.10,-204.00,29.9
2026/05/20 21:19:35.30,IMU,-298.34,79.59,932.13,4.69,15.02,5.53,-93.45,8.70,-205.95,30.0
2026/05/20 21:19:35.40,IMU,-333.98,110.35,926.27,1.73,-2.89,4.50,-91.05,9.30,-203.70,30.1
2026/05/20 21:19:35.51,IMU,-312.01,74.22,945.80,-8.65,-4.20,1.25,-92.40,7.35,-204.75,29.9
2026/05/20 21:19:35.61,IMU,-284.18,104.49,940.92,2.77,-2.09,3.76,-91.20,10.50,-204.15,29.9
2026/05/20 21:19:35.71,IMU,-308.11,79.10,955.08,9.11,-3.24,7.24,-91.35,8.40,-204.00,29.9
2026/05/20 21:19:35.83,IMU,-285.64,130.86,962.89,-1.19,1.00,2.23,-91.95,9.00,-204.15,29.8
2026/05/20 21:19:35.93,IMU,-324.22,84.47,947.75,-8.47,-0.21,0.48,-91.95,9.00,-204.15,29.9
2026/05/20 21:19:36.03,IMU,-306.64,110.35,937.99,-1.57,1.05,2.46,-91.35,8.10,-204.00,30.1
2026/05/20 21:19:36.13,IMU,-304.20,110.84,942.38,4.11,-2.24,1.29,-91.50,5.25,-201.75,29.9
2026/05/20 21:19:36.23,IMU,-335.94,113.77,966.31,-7.21,4.15,6.01,-91.80,7.35,-203.25,29.9
2026/05/20 21:19:36.33,IMU,-328.61,114.26,971.19,-9.07,-8.69,5.33,-92.40,7.35,-204.45,30.1
2026/05/20 21:19:36.45,IMU,-282.71,98.14,948.73,-1.96,-6.69,-1.23,-92.85,7.65,-203.70,29.8
2026/05/20 21:19:36.55,IMU,-356.45,93.75,923.83,-14.62,-8.02,4.36,-91.95,7.50,-202.80,29.9
2026/05/20 21:19:36.65,IMU,-509.28,163.09,881.35,-28.51,-3.16,-15.66,-93.60,7.35,-203.25,29.9
2026/05/20 21:19:36.75,IMU,-414.55,86.91,917.48,-9.73,-29.99,-83.92,-94.50,4.50,-205.95,29.9
2026/05/20 21:19:36.85,IMU,-286.13,72.75,900.88,7.50,-4.26,-93.12,-93.60,3.60,-205.80,29.9
2026/05/20 21:19:36.95,IMU,-244.63,-148.93,871.58,-5.87,3.63,-109.72,-91.35,5.10,-208.35,29.9
2026/05/20 21:19:37.05,IMU,24.90,-87.89,1012.21,7.76,-25.63,-117.83,-90.75,5.55,-205.95,30.1
2026/05/20 21:19:37.16,IMU,73.24,-265.14,916.02,-21.86,-3.06,-53.52,-92.70,3.75,-204.15,30.0
2026/05/20 21:19:37.26,IMU,90.82,-214.36,908.69,10.36,2.37,-54.09,-89.55,8.40,-206.55,30.0
2026/05/20 21:19:37.36,IMU,-18.07,-161.62,1037.11,23.27,26.23,-45.76,-88.35,7.65,-209.40,29.9
2026/05/20 21:19:37.46,IMU,-130.86,50.78,1146.48,14.34,0.18,-24.64,-87.15,9.45,-208.50,29.9
2026/05/20 21:19:37.56,IMU,-83.50,-95.21,1039.55,9.39,-13.76,-31.69,-87.90,9.00,-208.95,30.1
2026/05/20 21:19:37.66,IMU,-36.62,-1.46,1076.17,35.32,9.44,-18.24,-87.00,11.10,-209.10,29.7
2026/05/20 21:19:37.76,IMU,-96.68,38.09,1097.66,28.08,-1.11,-12.15,-87.00,12.30,-210.90,29.9
2026/05/20 21:19:37.89,IMU,-49.32,196.29,974.61,-1.43,21.69,13.08,-85.65,15.45,-212.10,29.7
2026/05/20 21:19:37.99,IMU,-116.21,-5.37,894.04,4.44,-20.73,8.27,-87.15,14.40,-212.85,29.9
2026/05/20 21:19:38.09,IMU,-57.13,609.38,1011.23,20.75,-5.45,-16.35,-84.75,15.30,-212.40,29.8
2026/05/20 21:19:38.21,IMU,-44.43,137.21,1023.93,0.25,2.40,2.83,-89.85,12.60,-209.10,30.1
2026/05/20 21:19:38.31,IMU,-108.40,108.40,1007.32,23.01,-29.82,6.35,-86.40,16.65,-213.30,29.9
2026/05/20 21:19:38.41,IMU,-96.19,174.32,978.03,35.15,3.29,10.32,-88.65,18.15,-215.70,29.9
2026/05/20 21:19:38.51,IMU,86.91,911.62,479.49,-19.53,41.80,1.05,-88.05,20.55,-218.40,29.9
2026/05/20 21:19:38.61,IMU,-100.10,260.74,998.05,-4.10,-3.62,-0.60,-86.55,19.50,-218.40,29.6
2026/05/20 21:19:38.71,IMU,-97.66,188.96,925.29,-4.82,1.73,2.56,-87.45,20.85,-219.00,30.0
2026/05/20 21:19:38.81,IMU,-142.09,215.82,1009.28,-27.56,42.24,0.05,-91.05,18.75,-212.70,29.9
2026/05/20 21:19:38.91,IMU,-14.65,141.11,713.38,-72.53,-49.81,8.10,-85.05,18.75,-214.50,30.2
2026/05/20 21:19:39.01,IMU,-168.95,158.20,1244.63,1.30,-6.17,1.92,-85.80,17.25,-214.50,29.9
2026/05/20 21:19:39.11,IMU,-151.37,177.73,844.24,-8.69,-5.45,3.16,-86.40,16.65,-214.35,29.8
2026/05/20 21:19:39.21,IMU,-38.57,13.67,1014.16,-48.40,-47.71,2.62,-89.10,15.75,-212.70,29.9
2026/05/20 21:19:39.33,IMU,-27.83,42.48,943.36,-1.37,-1.39,4.02,-89.70,14.70,-212.10,30.1
2026/05/20 21:19:39.43,IMU,-36.62,54.20,1004.88,-1.76,1.17,2.78,-88.20,15.45,-213.30,30.1
2026/05/20 21:19:39.53,IMU,-27.34,4.88,1005.37,-29.29,-8.96,-0.74,-89.85,13.35,-212.70,29.8
2026/05/20 21:19:39.65,IMU,3.42,-2.93,973.14,-12.50,-2.64,-0.48,-90.60,14.55,-210.60,29.9
2026/05/20 21:19:39.75,IMU,-23.93,19.04,1013.67,-2.07,1.18,1.98,-89.40,13.65,-211.50,29.9
2026/05/20 21:19:39.85,IMU,-12.70,22.95,1014.16,-2.11,1.18,0.28,-89.70,13.95,-211.80,29.9
2026/05/20 21:19:39.95,IMU,-4.39,-43.46,1132.81,-23.89,45.31,-10.23,-88.20,14.70,-210.00,29.8
2026/05/20 21:19:40.05,IMU,-167.48,1.95,1011.72,-3.86,3.09,-0.60,-84.60,12.15,-211.05,29.9
2026/05/20 21:19:40.15,IMU,-169.43,-8.30,961.91,-0.61,0.92,0.73,-83.40,12.15,-210.30,29.9
2026/05/20 21:19:40.26,IMU,-109.86,-15.63,1005.86,-14.20,-80.34,8.87,-89.70,11.25,-205.95,29.8
2026/05/20 21:19:40.36,IMU,-48.34,-31.25,989.75,-0.73,1.28,0.42,-88.65,12.90,-210.75,30.2
2026/05/20 21:19:40.46,IMU,-47.36,-25.39,993.65,-1.71,0.29,3.12,-87.30,11.85,-211.20,29.6
2026/05/20 21:19:40.56,IMU,-46.39,-20.51,1013.67,-1.25,-0.09,0.12,-88.05,11.10,-209.85,29.9
2026/05/20 21:19:40.66,IMU,-41.99,-14.65,1008.79,0.18,-0.97,-0.66,-88.35,13.05,-209.40,29.9
2026/05/20 21:19:40.79,IMU,-35.16,-33.20,1005.37,-0.19,-0.96,-2.05,-88.65,13.20,-211.50,29.9
2026/05/20 21:19:40.89,IMU,-24.41,-34.67,993.16,-3.11,-0.33,0.31,-89.55,13.35,-210.60,30.1
2026/05/20 21:19:41.00,IMU,-40.04,-19.53,997.07,-0.83,1.08,0.72,-88.05,13.05,-210.15,29.9
2026/05/20 21:19:41.10,IMU,-46.88,-26.86,1009.77,-0.53,1.91,1.16,-88.05,12.30,-210.15,29.8
2026/05/20 21:19:41.20,IMU,-49.32,-21.48,1001.95,-0.16,0.83,0.25,-88.20,12.45,-209.70,29.8
2026/05/20 21:19:41.30,IMU,-50.29,-19.53,996.09,-1.92,0.95,1.99,-90.45,11.70,-207.45,30.1
2026/05/20 21:19:41.40,IMU,-42.97,-22.95,1000.00,-1.08,0.98,-0.16,-90.15,12.15,-207.90,30.0
2026/05/20 21:19:41.50,IMU,-45.41,-26.86,1006.35,-1.73,0.59,1.49,-88.95,11.70,-210.00,29.7
2026/05/20 21:19:41.60,IMU,-36.13,-31.74,1001.46,-1.32,-0.43,1.85,-86.40,11.70,-210.00,29.9
2026/05/20 21:19:41.70,IMU,-58.59,-28.32,1004.39,-0.06,0.36,-0.76,-89.10,13.35,-211.20,29.9
2026/05/20 21:19:41.80,IMU,-63.96,-31.25,995.61,0.08,1.23,3.57,-87.90,12.15,-210.75,30.1
2026/05/20 21:19:41.90,IMU,-56.64,-36.62,994.63,-0.31,0.47,-1.87,-88.20,12.90,-211.80,30.0
2026/05/20 21:19:42.00,IMU,-51.27,-29.30,1011.72,1.46,-0.54,-2.11,-88.80,13.35,-210.90,30.0
2026/05/20 21:19:42.10,IMU,-58.59,-6.84,1009.28,-1.81,0.00,3.19,-89.55,11.10,-210.90,30.1
2026/05/20 21:19:42.22,IMU,-38.09,-11.23,1007.81,-1.09,-1.89,0.24,-89.10,12.30,-210.15,30.3
2026/05/20 21:19:42.32,IMU,-42.97,-22.46,987.79,-0.66,1.05,0.52,-88.35,11.55,-210.60,30.1
2026/05/20 21:19:42.43,IMU,-42.48,-10.25,997.56,-1.60,1.42,1.44,-89.55,11.85,-210.60,30.1
2026/05/20 21:19:42.53,IMU,-42.48,-13.18,995.12,0.45,1.02,1.55,-88.20,12.15,-208.20,29.8
2026/05/20 21:19:42.63,IMU,-21.97,-26.37,999.51,-1.54,-0.66,-2.38,-88.20,12.45,-211.05,29.9
2026/05/20 21:19:42.73,IMU,-46.39,-17.09,1011.72,-1.18,0.68,-0.04,-87.75,12.60,-210.15,30.2
2026/05/20 21:19:42.83,IMU,-37.11,-20.51,1009.77,-1.53,-0.74,0.79,-91.05,11.10,-207.60,29.8
2026/05/20 21:19:42.93,IMU,-45.90,-28.32,989.26,-0.39,-0.92,4.44,-88.05,11.85,-210.90,29.9
2026/05/20 21:19:43.03,IMU,-47.85,-26.86,994.63,-1.86,-0.89,3.04,-88.95,12.15,-211.80,30.0
2026/05/20 21:19:43.13,IMU,-49.32,-20.02,1005.37,-1.24,-0.38,0.41,-88.80,12.30,-209.85,30.2
2026/05/20 21:19:43.23,IMU,-31.74,-14.65,989.75,-2.15,-0.78,-0.89,-87.30,11.85,-210.15,29.9
2026/05/20 21:19:43.35,IMU,-46.39,-20.51,1003.42,-0.23,1.53,0.74,-88.65,11.25,-209.25,29.8
2026/05/20 21:19:43.45,IMU,-36.62,-30.27,1001.95,1.06,-0.05,0.24,-87.00,12.30,-210.15,30.3
2026/05/20 21:19:43.55,IMU,-39.06,-32.23,1004.39,-1.69,1.80,0.14,-87.15,12.15,-210.30,29.8
2026/05/20 21:19:43.67,IMU,-49.32,-26.86,1006.84,-0.15,-0.81,-1.97,-88.20,12.15,-211.05,30.2
2026/05/20 21:19:43.77,IMU,-41.99,-25.88,1007.81,1.34,-1.02,2.28,-88.95,11.70,-210.75,29.9
2026/05/20 21:19:43.87,IMU,-30.27,-18.55,1007.81,-0.21,0.14,-0.34,-87.45,11.70,-211.05,30.2
2026/05/20 21:19:43.97,IMU,-37.60,-22.46,1003.91,-2.04,-0.83,-0.27,-88.95,12.90,-210.30,30.1
2026/05/20 21:19:44.07,IMU,-58.59,-36.62,997.07,-0.18,-0.94,2.28,-88.80,13.05,-210.15,29.9
2026/05/20 21:19:44.17,IMU,-46.39,-11.72,1026.37,1.42,-0.30,-0.69,-88.95,11.25,-211.50,29.8
2026/05/20 21:19:44.27,IMU,-42.97,-41.99,1013.67,-1.18,2.05,0.89,-90.75,10.95,-207.90,29.9
2026/05/20 21:19:44.37,IMU,-58.59,-23.44,993.65,-1.56,0.38,0.92,-88.65,12.90,-212.10,30.0
2026/05/20 21:19:44.47,IMU,-36.62,-6.35,995.61,-0.08,-0.49,0.82,-88.05,13.35,-210.90,30.2
2026/05/20 21:19:44.58,IMU,-47.36,-18.07,983.89,-0.66,-0.78,0.29,-89.40,11.25,-210.75,30.1
2026/05/20 21:19:44.68,IMU,-47.85,-29.30,989.26,-2.05,-2.02,1.05,-88.05,12.30,-210.15,30.0
2026/05/20 21:19:44.78,IMU,-33.20,-11.23,997.56,-0.47,0.86,-0.94,-88.20,13.20,-210.30,29.8
2026/05/20 21:19:44.88,IMU,-62.50,-26.37,996.09,-2.47,0.95,0.87,-89.40,12.45,-209.70,29.9
2026/05/20 21:19:44.98,IMU,-38.09,-6.35,991.70,-3.11,0.98,0.09,-88.35,11.85,-211.20,30.0
2026/05/20 21:19:45.08,IMU,-53.71,-19.04,988.77,1.06,-0.37,1.92,-89.40,13.65,-210.30,30.1
2026/05/20 21:19:45.18,IMU,-50.29,-20.51,993.16,-2.77,0.77,-0.02,-88.65,12.15,-210.30,30.2
2026/05/20 21:19:45.28,IMU,-44.92,-31.74,998.54,-1.37,2.02,0.32,-88.80,12.60,-210.60,30.2
2026/05/20 21:19:45.41,IMU,-21.97,-17.58,1007.81,-1.53,-2.98,1.43,-88.05,13.05,-210.60,30.3
2026/05/20 21:19:45.51,IMU,-32.23,-26.37,997.07,-0.72,1.53,0.41,-88.65,11.25,-209.25,30.0
2026/05/20 21:19:45.61,IMU,-36.13,-18.07,994.63,-0.68,0.02,-2.16,-88.80,13.35,-210.90,30.3
2026/05/20 21:19:45.71,IMU,-40.04,-21.00,991.21,-1.45,0.42,1.10,-88.20,12.90,-210.00,30.1
2026/05/20 21:19:45.82,IMU,-47.85,-17.58,995.12,0.08,3.34,1.24,-88.35,12.30,-210.15,29.9
2026/05/20 21:19:45.92,IMU,-44.92,-13.67,990.72,-1.69,1.95,-1.79,-87.90,12.45,-212.10,30.1
2026/05/20 21:19:46.02,IMU,-42.97,-11.72,1008.79,-0.17,0.82,-0.08,-91.05,11.10,-208.05,29.8
2026/05/20 21:19:46.12,IMU,-42.48,-19.53,995.61,-0.29,0.94,2.31,-88.95,10.95,-210.75,29.9
2026/05/20 21:19:46.22,IMU,-51.27,-15.63,995.12,-0.11,-2.53,0.70,-88.20,11.70,-211.50,30.0
2026/05/20 21:19:46.32,IMU,-47.36,-22.46,998.05,-0.77,0.11,2.20,-87.30,12.60,-209.85,29.8
2026/05/20 21:19:46.42,IMU,-46.39,-26.37,993.65,0.64,0.39,0.88,-89.85,12.30,-210.15,29.6
2026/05/20 21:19:46.52,IMU,-46.88,-17.09,998.54,-0.31,0.53,-2.40,-87.45,12.90,-210.30,29.9
2026/05/20 21:19:46.62,IMU,-45.90,-11.23,981.45,-2.40,-0.63,-1.90,-88.20,12.90,-210.30,30.1
2026/05/20 21:19:46.72,IMU,-42.48,-15.14,999.51,-0.79,-1.89,0.79,-88.65,13.20,-211.80,29.9
2026/05/20 21:19:46.82,IMU,-46.88,-17.09,991.21,-0.82,-0.49,3.94,-88.20,12.90,-210.30,29.9
2026/05/20 21:19:46.92,IMU,-39.06,-29.30,980.96,-0.60,1.95,2.94,-88.35,13.80,-211.20,30.2
2026/05/20 21:19:47.02,IMU,-45.90,-23.44,990.72,-0.66,0.09,1.98,-89.10,12.30,-211.95,30.1
2026/05/20 21:19:47.13,IMU,-50.78,-22.46,991.70,-0.12,3.14,1.50,-88.80,11.85,-210.15,30.0
2026/05/20 21:19:47.23,IMU,-36.13,-31.25,999.51,1.02,0.57,2.77,-87.75,12.60,-209.85,29.7
2026/05/20 21:19:47.33,IMU,-56.64,-22.95,994.63,-0.85,0.44,0.20,-87.45,12.15,-210.75,29.9
2026/05/20 21:19:47.44,IMU,-50.29,-29.30,996.09,-1.50,-0.69,0.82,-88.80,12.60,-210.60,29.8
2026/05/20 21:19:47.54,IMU,-35.64,-34.18,991.21,-0.77,0.22,1.53,-87.45,13.20,-210.30,29.8
2026/05/20 21:19:47.64,IMU,-48.34,-21.00,996.09,-2.78,0.50,2.89,-88.95,12.45,-211.05,29.8
2026/05/20 21:19:47.74,IMU,-46.39,-26.86,993.65,-2.37,0.85,1.21,-88.20,11.70,-210.30,29.9
2026/05/20 21:19:47.84,IMU,-40.53,-21.48,998.05,-0.02,-1.06,-0.68,-86.70,11.70,-210.75,29.8
2026/05/20 21:19:47.94,IMU,-36.62,-14.65,997.56,-2.28,-1.95,0.70,-87.30,11.85,-209.85,29.8
2026/05/20 21:19:48.05,IMU,-50.29,-21.97,998.05,1.24,-0.31,0.55,-91.35,11.10,-207.60,29.5
2026/05/20 21:19:48.15,IMU,-40.04,-11.72,1003.91,0.98,-1.17,3.99,-88.05,13.80,-210.90,29.7
2026/05/20 21:19:48.25,IMU,-44.92,-15.14,986.82,0.15,0.63,-1.21,-88.80,11.85,-210.90,29.6
2026/05/20 21:19:48.35,IMU,-32.23,-21.48,1001.46,0.56,-0.35,0.33,-87.75,12.60,-211.20,29.9
2026/05/20 21:19:48.45,IMU,-41.02,-34.18,998.54,-1.25,1.16,0.44,-91.05,10.35,-207.30,29.9
2026/05/20 21:19:48.55,IMU,-36.13,-19.04,995.61,-1.44,1.12,-0.34,-88.80,11.85,-210.90,29.6
2026/05/20 21:19:48.65,IMU,-36.13,-17.58,1003.42,-1.06,0.20,0.51,-87.15,13.20,-210.00,29.8
2026/05/20 21:19:48.75,IMU,-38.57,-15.14,1005.86,0.54,-1.19,1.47,-88.80,13.05,-210.15,29.9
2026/05/20 21:19:48.85,IMU,-55.18,-20.51,994.14,0.84,0.14,-0.27,-88.65,13.65,-210.00,29.5
2026/05/20 21:19:48.95,IMU,-42.97,-25.39,985.84,1.31,0.67,1.18,-88.95,12.45,-211.05,29.7
2026/05/20 21:19:49.05,IMU,-46.39,-17.09,994.63,0.19,2.37,0.20,-88.20,12.90,-211.05,29.9
2026/05/20 21:19:49.17,IMU,-46.39,-28.32,1001.46,-1.13,0.02,-0.16,-88.35,11.85,-210.90,29.8
2026/05/20 21:19:49.27,IMU,-40.04,-15.14,1004.39,-1.36,-2.11,-0.59,-87.15,12.45,-211.50,29.8
2026/05/20 21:19:49.37,IMU,-54.20,-29.79,1005.86,-0.34,-2.05,-2.92,-87.90,13.20,-211.50,29.9
2026/05/20 21:19:49.48,IMU,-37.11,-36.13,1005.37,-0.18,3.63,2.22,-92.85,12.30,-206.25,29.6
2026/05/20 21:19:49.58,IMU,-58.59,-31.74,987.79,-1.64,-0.40,-1.03,-88.65,11.70,-210.30,29.9
2026/05/20 21:19:49.68,IMU,-52.73,-34.67,984.38,-0.27,0.52,-0.98,-87.30,13.05,-209.85,29.9
2026/05/20 21:19:49.79,IMU,-51.76,-16.60,994.63,-0.50,-0.76,4.24,-89.40,12.45,-210.00,29.8
2026/05/20 21:19:49.89,IMU,-36.13,-14.16,998.05,-1.98,2.72,0.61,-87.30,14.10,-210.15,29.8
2026/05/20 21:19:49.99,IMU,-44.92,-15.14,995.12,-0.65,0.08,-0.37,-88.80,11.55,-210.90,29.5
2026/05/20 21:19:50.09,IMU,-46.88,-20.02,1001.95,-1.81,-0.36,0.49,-87.75,12.30,-209.40,29.8
2026/05/20 21:19:50.19,IMU,-44.43,-26.37,992.19,-3.00,-0.25,0.56,-88.80,12.30,-210.60,29.8
2026/05/20 21:19:50.29,IMU,-43.46,-29.30,992.19,-0.94,-0.57,1.40,-88.05,11.55,-211.20,29.8
2026/05/20 21:19:50.39,IMU,-49.80,-13.18,1007.81,-0.67,2.40,0.53,-87.45,13.20,-211.05,29.6
2026/05/20 21:19:50.51,IMU,-63.96,-9.77,996.09,-0.82,-0.88,-1.32,-91.05,8.40,-208.35,29.8
2026/05/20 21:19:50.61,IMU,-38.09,-17.09,1005.37,-0.50,0.21,1.66,-87.90,12.15,-210.00,29.9
2026/05/20 21:19:50.71,IMU,-36.62,-12.21,997.56,-0.76,0.42,0.60,-89.85,11.85,-210.90,29.6
2026/05/20 21:19:50.81,IMU,-40.04,-33.20,998.54,0.86,-0.59,2.78,-88.65,12.45,-209.70,29.9
2026/05/20 21:19:50.92,IMU,-41.02,-19.04,1011.23,-1.55,0.38,2.81,-89.85,11.85,-210.90,29.8
2026/05/20 21:19:51.02,IMU,-47.85,-20.02,1002.93,-1.05,0.29,0.12,-88.65,13.20,-210.75,29.9
2026/05/20 21:19:51.12,IMU,-38.57,-21.00,1003.42,-2.28,-0.40,1.07,-88.80,11.10,-210.90,29.8
2026/05/20 21:19:51.24,IMU,-54.20,-20.51,999.51,-1.37,1.86,1.19,-88.20,11.70,-210.30,29.9
2026/05/20 21:19:51.34,IMU,-47.85,-21.48,1009.28,-0.52,0.42,-0.08,-87.30,12.30,-209.40,29.8
2026/05/20 21:19:51.44,IMU,-39.55,-12.70,1016.60,-0.35,-0.15,0.13,-88.80,12.60,-210.15,29.9
2026/05/20 21:19:51.54,IMU,-53.22,-17.58,989.26,-2.11,1.82,-1.86,-90.30,10.80,-206.55,29.9
2026/05/20 21:19:51.64,IMU,-52.25,-13.67,1000.00,-1.52,1.27,1.80,-88.80,11.85,-210.60,29.9
2026/05/20 21:19:51.74,IMU,-55.66,-7.81,1006.84,-1.20,-0.73,4.66,-88.05,12.60,-211.20,29.8
2026/05/20 21:19:51.85,IMU,-42.97,-29.30,991.70,-0.40,0.31,-1.85,-88.35,12.30,-209.85,29.9
2026/05/20 21:19:51.96,IMU,-54.20,-24.41,995.12,-2.27,0.25,0.82,-87.15,12.90,-208.95,29.8
2026/05/20 21:19:52.06,IMU,-38.09,-21.97,998.54,-1.26,2.20,-1.88,-88.95,12.15,-210.00,29.7
2026/05/20 21:19:52.17,IMU,-48.83,-18.07,1004.39,-0.43,-0.83,-1.10,-88.05,11.55,-210.60,29.8
2026/05/20 21:19:52.26,IMU,-38.57,-11.23,996.58,-0.90,-3.51,2.64,-89.40,12.90,-210.30,29.8
2026/05/20 21:19:52.36,IMU,-52.73,-22.46,989.26,-1.22,1.70,1.09,-87.30,11.55,-210.15,30.1
2026/05/20 21:19:52.47,IMU,-52.73,-22.46,994.63,-0.56,-1.41,0.21,-87.90,10.95,-211.05,29.9
2026/05/20 21:19:52.57,IMU,-36.13,-26.37,989.75,0.56,-0.18,1.60,-93.15,11.10,-206.55,29.9
2026/05/20 21:19:52.67,IMU,-45.41,-31.25,995.12,-1.47,-0.29,0.79,-88.80,13.35,-210.15,29.9
2026/05/20 21:19:52.78,IMU,-53.22,-11.23,992.68,-0.40,0.49,0.48,-88.95,13.20,-210.00,29.6
2026/05/20 21:19:52.88,IMU,-52.25,-26.37,1005.86,-1.25,-0.80,0.82,-88.95,12.45,-209.25,29.9
2026/05/20 21:19:52.98,IMU,-46.39,-26.86,1011.23,1.93,0.05,1.31,-88.65,13.65,-211.50,29.9
2026/05/20 21:19:53.08,IMU,-41.99,-28.81,996.09,-1.64,-0.48,1.11,-89.40,12.45,-211.05,29.7
2026/05/20 21:19:53.18,IMU,-46.39,-20.51,997.56,-1.19,-1.14,1.52,-86.70,12.90,-211.05,29.9
2026/05/20 21:19:53.28,IMU,-52.25,-15.63,1002.93,-1.81,1.21,2.79,-87.90,12.45,-211.80,29.8
2026/05/20 21:19:53.38,IMU,-37.60,-16.11,999.02,-2.34,1.57,1.49,-88.05,11.55,-210.90,29.9
2026/05/20 21:19:53.48,IMU,-46.39,-33.20,1002.44,-1.36,-1.49,5.40,-88.05,11.55,-210.60,29.8
2026/05/20 21:19:53.59,IMU,-41.02,-26.37,1001.95,-1.69,-1.50,0.60,-92.10,10.05,-207.60,29.7
2026/05/20 21:19:53.69,IMU,-38.09,-24.41,994.63,-0.54,-1.06,0.79,-88.35,13.35,-210.90,29.8
2026/05/20 21:19:53.79,IMU,-44.43,-18.55,1015.14,-2.00,0.73,-1.56,-89.40,11.70,-210.30,29.8
2026/05/20 21:19:53.91,IMU,-34.67,-16.11,1014.65,-2.64,-0.08,2.37,-88.35,12.60,-209.85,29.8
2026/05/20 21:19:54.01,IMU,-46.88,-19.04,999.51,-0.63,1.48,3.82,-88.05,13.80,-211.65,29.9
2026/05/20 21:19:54.11,IMU,-40.04,-12.70,999.51,-1.45,-1.79,1.48,-90.30,11.10,-212.40,29.9
2026/05/20 21:19:54.21,IMU,-35.64,-16.60,1006.84,-1.02,-0.11,-0.04,-88.80,12.30,-210.90,29.9
2026/05/20 21:19:54.32,IMU,-48.83,-23.93,1008.79,-2.44,-0.02,-2.69,-87.45,12.90,-209.70,29.8
2026/05/20 21:19:54.42,IMU,-44.92,-22.46,1017.09,-0.63,1.02,-2.00,-88.05,13.05,-210.15,29.8
2026/05/20 21:19:54.52,IMU,-41.99,-27.83,1008.30,-3.02,-0.68,0.89,-89.10,11.55,-209.40,29.9
2026/05/20 21:19:54.62,IMU,-36.62,-21.97,1014.65,-1.61,-0.42,-0.44,-90.75,10.20,-207.45,29.9
2026/05/20 21:19:54.72,IMU,-42.97,-19.53,994.14,-0.38,-0.52,4.17,-88.65,12.15,-209.70,29.8
2026/05/20 21:19:54.82,IMU,-46.88,-30.76,999.51,-0.98,-0.42,1.49,-88.20,13.65,-211.50,29.7
2026/05/20 21:19:54.92,IMU,-56.64,-14.65,1005.37,-2.45,-1.25,2.47,-88.65,12.90,-210.75,29.9
2026/05/20 21:19:55.02,IMU,-48.83,-28.32,1009.28,-0.29,-0.29,-0.40,-88.95,12.15,-209.70,29.8
2026/05/20 21:19:55.12,IMU,-36.62,-20.02,993.16,-1.99,-0.67,-0.09,-88.05,11.55,-210.15,29.7
2026/05/20 21:19:55.22,IMU,-37.60,-23.93,1005.86,-1.79,0.27,1.61,-90.30,11.55,-210.60,29.9
2026/05/20 21:19:55.34,IMU,-30.27,-12.70,993.16,0.24,1.56,0.09,-87.30,13.35,-210.60,29.8
2026/05/20 21:19:55.44,IMU,-34.67,-27.34,1002.93,-0.81,1.38,-0.27,-88.95,11.70,-210.75,29.8
2026/05/20 21:19:55.54,IMU,-59.08,-38.09,1014.65,-1.02,-1.30,-1.09,-88.95,11.70,-209.70,29.8
2026/05/20 21:19:55.66,IMU,-13.67,11.23,992.68,-2.08,2.72,1.91,-89.10,11.55,-210.60,30.0
2026/05/20 21:19:55.76,IMU,-53.22,-0.49,1003.42,0.62,0.17,1.46,-88.80,13.35,-210.90,29.6
2026/05/20 21:19:55.86,IMU,-61.04,-10.25,981.45,0.75,-0.76,0.80,-88.65,12.45,-211.05,30.0
2026/05/20 21:19:55.97,IMU,-59.57,-28.81,1001.46,-1.03,0.88,1.54,-87.45,12.90,-210.30,29.9
2026/05/20 21:19:56.07,IMU,-54.69,-14.65,992.68,-1.57,0.73,0.58,-89.40,10.95,-210.30,29.6
2026/05/20 21:19:56.17,IMU,-54.69,-30.27,1009.77,1.00,1.69,2.27,-89.40,10.50,-210.00,29.8
2026/05/20 21:19:56.27,IMU,-46.88,-14.65,998.54,-1.09,1.08,0.52,-88.65,12.15,-211.50,29.8
2026/05/20 21:19:56.37,IMU,-59.08,-8.79,1004.88,-1.73,1.25,-1.02,-90.15,10.95,-210.30,29.8
2026/05/20 21:19:56.47,IMU,-55.66,-18.55,1012.21,-0.08,1.18,-0.18,-88.35,11.85,-210.15,29.7
2026/05/20 21:19:56.57,IMU,-45.41,-13.67,991.21,-0.61,-0.19,1.47,-93.00,10.50,-204.15,29.7
2026/05/20 21:19:56.67,IMU,-36.62,-24.41,998.54,-1.41,-1.44,-2.27,-91.05,11.10,-206.85,29.7
2026/05/20 21:19:56.78,IMU,-39.55,-20.02,1011.23,-1.66,1.91,-0.34,-88.05,13.05,-210.90,29.8
2026/05/20 21:19:56.88,IMU,-42.48,-20.02,995.12,-1.08,1.05,2.14,-88.95,10.95,-211.50,29.8
2026/05/20 21:19:56.98,IMU,-35.16,-22.46,1007.81,-0.15,-0.10,0.31,-89.40,11.70,-210.00,29.9
2026/05/20 21:19:57.08,IMU,-53.71,-26.37,1000.00,-0.11,1.48,3.91,-88.05,12.30,-211.20,29.9
2026/05/20 21:19:57.18,IMU,-59.08,-24.41,993.16,-0.09,-0.10,1.26,-88.80,11.85,-211.65,30.0
2026/05/20 21:19:57.28,IMU,-46.39,-19.53,992.68,-0.67,1.48,1.05,-88.05,12.30,-209.85,29.9
2026/05/20 21:19:57.40,IMU,-28.32,38.09,979.98,-1.63,-0.47,2.90,-88.05,10.80,-210.15,29.6
2026/05/20 21:19:57.50,IMU,-62.01,-20.51,1015.63,-0.51,0.64,-0.25,-88.65,12.45,-211.05,29.7
2026/05/20 21:19:57.60,IMU,-41.99,-23.93,1014.16,-1.44,-0.27,4.05,-88.80,12.30,-211.20,29.8
2026/05/20 21:19:57.70,IMU,-39.06,-16.60,997.56,-2.02,0.32,-0.15,-88.35,12.60,-209.40,29.7
2026/05/20 21:19:57.80,IMU,-31.74,-21.97,1003.91,-1.28,-3.22,0.76,-89.40,12.90,-210.75,29.9
2026/05/20 21:19:57.90,IMU,-40.53,-13.67,1004.88,1.27,1.82,0.92,-88.65,11.70,-210.75,29.6
2026/05/20 21:19:58.01,IMU,-42.48,-13.18,998.54,-0.20,-1.51,-0.21,-92.70,10.20,-206.70,29.9
2026/05/20 21:19:58.11,IMU,-51.76,-15.63,996.58,-1.58,-0.85,-0.61,-89.40,11.70,-210.75,29.8
2026/05/20 21:19:58.21,IMU,-34.67,-18.55,993.65,-0.08,-1.41,1.50,-88.80,13.05,-209.10,29.9
2026/05/20 21:19:58.31,IMU,-54.69,-26.86,1031.25,0.78,0.48,1.31,-89.55,11.55,-210.90,29.7
2026/05/20 21:19:58.41,IMU,-47.85,-18.07,1000.49,0.95,-0.74,2.15,-88.05,13.35,-209.10,29.8
2026/05/20 21:19:58.51,IMU,-43.95,-8.30,1004.88,-0.21,0.80,3.31,-89.10,11.55,-210.15,29.6
2026/05/20 21:19:58.61,IMU,-55.18,-10.25,1006.84,-2.17,-1.40,0.63,-88.20,13.65,-211.50,29.9
2026/05/20 21:19:58.71,IMU,-51.76,-35.64,1001.95,-1.90,0.35,-0.42,-91.20,9.75,-207.45,29.8
2026/05/20 21:19:58.81,IMU,-46.39,-19.53,1005.37,-1.50,-0.05,-0.89,-89.55,12.30,-210.90,29.8
2026/05/20 21:19:58.91,IMU,-50.29,-25.39,995.61,-3.61,-0.23,-1.56,-88.20,12.45,-210.30,30.0
2026/05/20 21:19:59.01,IMU,-57.62,-38.09,1008.30,0.33,0.46,2.24,-88.35,12.60,-211.20,29.8
2026/05/20 21:19:59.12,IMU,-54.20,-14.16,953.13,-0.29,-0.34,-2.49,-88.35,12.30,-209.85,29.6
2026/05/20 21:19:59.22,IMU,-39.06,-28.32,999.51,-0.21,1.37,-1.46,-88.95,12.45,-210.30,29.8
2026/05/20 21:19:59.32,IMU,-48.34,-31.74,1000.00,-1.31,0.07,-0.09,-88.95,12.15,-210.30,29.9
2026/05/20 21:19:59.43,IMU,-45.41,-30.76,1000.00,-1.77,-0.33,-0.17,-87.75,10.80,-209.85,29.7
2026/05/20 21:19:59.53,IMU,-36.13,-22.95,985.35,0.45,-0.86,0.72,-87.30,11.85,-210.60,29.9
2026/05/20 21:19:59.63,IMU,-41.02,-18.07,999.02,0.34,0.24,0.38,-88.20,12.90,-210.75,29.8
2026/05/20 21:19:59.73,IMU,-37.60,-13.18,1008.79,-0.37,-1.03,-2.89,-92.25,9.75,-205.65,29.7
2026/05/20 21:19:59.83,IMU,-39.55,-12.21,1014.65,-0.57,1.13,-0.83,-88.65,12.45,-209.25,29.7
2026/05/20 21:19:59.93,IMU,-51.27,-23.93,1003.91,1.04,1.59,-1.63,-88.35,12.60,-210.90,29.8
2026/05/20 21:20:00.03,IMU,-50.78,-16.11,1012.21,0.45,-3.19,-1.63,-88.05,12.30,-209.10,29.8
2026/05/20 21:20:00.13,IMU,-68.85,-46.39,983.89,-0.11,-1.50,1.47,-87.45,11.70,-210.00,29.8
2026/05/20 21:20:00.23,IMU,-52.73,-23.93,1004.88,1.49,-0.82,0.28,-89.40,12.90,-209.70,29.6
2026/05/20 21:20:00.33,IMU,-44.92,-8.30,988.77,-1.58,-1.27,0.21,-88.20,10.95,-211.05,29.6
2026/05/20 21:20:00.43,IMU,-53.22,-25.88,1013.18,-1.65,0.63,-1.71,-88.65,11.25,-209.70,29.8
2026/05/20 21:20:00.55,IMU,-51.76,-13.18,1004.39,0.16,2.31,-0.12,-88.65,11.25,-210.75,29.8
2026/05/20 21:20:00.65,IMU,-49.32,-13.18,1004.39,-1.63,0.50,1.66,-88.35,11.85,-209.40,29.8
2026/05/20 21:20:00.75,IMU,-39.06,-12.70,1006.84,-0.10,-0.06,0.20,-91.20,9.75,-205.95,29.6
2026/05/20 21:20:00.86,IMU,-48.83,-26.86,1000.00,-0.50,2.55,1.77,-88.05,12.60,-210.60,29.8
2026/05/20 21:20:00.96,IMU,-45.41,-26.37,1002.93,0.79,-0.09,0.55,-89.70,13.20,-211.50,29.7
2026/05/20 21:20:01.06,IMU,-45.41,-21.48,1010.25,-2.16,0.35,-0.99,-88.35,11.85,-210.90,29.8
2026/05/20 21:20:01.17,IMU,-56.15,-33.20,1010.25,-0.64,1.81,2.86,-88.95,12.90,-210.30,30.0
2026/05/20 21:20:01.27,IMU,-47.36,-21.00,997.56,0.26,-1.75,3.23,-89.55,12.30,-210.60,29.6
2026/05/20 21:20:01.37,IMU,-41.99,-23.44,1000.00,-2.16,-1.32,-2.53,-87.90,12.45,-208.95,29.8
2026/05/20 21:20:01.47,IMU,-46.39,-22.95,991.70,0.18,-0.68,1.76,-88.95,11.70,-210.75,29.8
2026/05/20 21:20:01.57,IMU,-49.32,-15.63,998.54,-0.24,-3.92,2.15,-89.40,12.45,-210.00,29.8
2026/05/20 21:20:01.67,IMU,-40.53,-13.18,994.14,0.13,-2.37,3.09,-87.75,13.05,-209.85,29.9
2026/05/20 21:20:01.77,IMU,-50.78,-35.16,1001.46,0.33,-0.57,2.37,-93.45,11.25,-207.15,29.6
2026/05/20 21:20:01.87,IMU,-40.04,-17.58,999.51,-2.05,-1.47,-0.49,-88.20,13.20,-209.70,29.9
2026/05/20 21:20:01.97,IMU,-41.99,-8.79,1010.74,0.27,1.34,2.63,-88.65,12.45,-210.75,29.8
2026/05/20 21:20:02.07,IMU,-42.48,-13.18,980.47,-0.50,-2.56,1.56,-88.35,13.35,-210.15,29.9
2026/05/20 21:20:02.17,IMU,-47.36,-18.55,1000.00,-1.71,-0.27,3.51,-88.65,12.15,-211.05,29.8
2026/05/20 21:20:02.28,IMU,-21.48,-6.35,987.30,-0.79,-0.58,0.50,-88.95,12.45,-210.00,29.6
2026/05/20 21:20:02.38,IMU,-44.92,-29.79,996.09,-0.85,0.19,2.15,-88.80,11.55,-209.85,29.8
2026/05/20 21:20:02.48,IMU,-37.60,-23.44,996.58,-0.76,1.09,1.34,-89.10,13.35,-210.90,29.8
2026/05/20 21:20:02.58,IMU,-41.50,-33.20,991.70,1.27,1.40,0.82,-88.95,12.90,-211.50,29.8
2026/05/20 21:20:02.68,IMU,-38.57,-23.93,1006.84,-1.50,0.68,0.61,-88.05,12.60,-210.60,29.6
2026/05/20 21:20:02.78,IMU,-48.34,-43.46,997.56,-0.91,-1.19,1.44,-89.40,13.65,-211.50,29.9
2026/05/20 21:20:02.88,IMU,-54.69,-39.55,996.09,0.61,0.58,-0.92,-89.10,11.85,-210.15,29.8
2026/05/20 21:20:02.98,IMU,-54.20,-27.83,1005.86,0.40,-1.04,-2.34,-88.80,12.60,-209.40,29.9
2026/05/20 21:20:03.08,IMU,-56.64,-26.86,993.16,-2.13,0.85,0.05,-88.65,11.25,-210.75,29.9
2026/05/20 21:20:03.21,IMU,-47.85,-14.16,996.09,-2.01,-0.68,0.21,-88.20,11.70,-212.10,29.8
2026/05/20 21:20:03.31,IMU,-37.60,-32.71,1008.30,-0.76,-2.06,-0.55,-89.40,11.25,-210.30,29.8
2026/05/20 21:20:03.41,IMU,-35.16,-34.67,1005.37,-0.29,0.56,1.09,-88.35,13.35,-209.85,29.8
2026/05/20 21:20:03.51,IMU,-47.36,-11.72,993.16,0.05,0.27,1.23,-87.15,11.70,-210.00,29.8
2026/05/20 21:20:03.61,IMU,-43.46,-20.02,1005.37,-1.05,-1.12,-0.88,-89.40,12.15,-212.55,29.7
2026/05/20 21:20:03.72,IMU,-35.16,-20.02,999.51,-0.02,0.74,1.18,-88.05,11.85,-209.85,29.6
2026/05/20 21:20:03.82,IMU,-43.95,-32.71,998.05,-0.17,2.50,3.72,-91.05,10.05,-206.55,29.6
2026/05/20 21:20:03.92,IMU,-37.60,-9.77,1002.44,-0.93,-1.82,0.58,-87.45,12.15,-210.30,29.8
2026/05/20 21:20:04.02,IMU,-47.36,-22.46,1008.79,-2.58,1.54,-0.64,-86.40,11.70,-210.75,30.2
2026/05/20 21:20:04.12,IMU,-39.55,-28.81,997.07,-1.89,0.54,0.61,-89.40,12.15,-211.80,29.9
2026/05/20 21:20:04.22,IMU,-44.43,-27.83,994.63,-1.03,0.92,-0.31,-89.70,12.90,-210.75,30.0
2026/05/20 21:20:04.34,IMU,-44.92,-12.21,986.33,0.58,-2.30,0.02,-89.55,11.85,-210.60,29.8
2026/05/20 21:20:04.44,IMU,-39.55,-15.63,999.02,0.26,-0.69,0.95,-88.65,13.65,-209.70,29.8
2026/05/20 21:20:04.54,IMU,-68.85,-18.07,1005.86,0.24,2.33,-0.83,-88.80,11.55,-211.20,29.8
2026/05/20 21:20:04.65,IMU,-37.11,-25.88,985.35,-0.66,0.12,-2.24,-89.70,12.15,-210.75,29.8
2026/05/20 21:20:04.75,IMU,-39.06,-21.48,985.84,0.72,-1.27,4.43,-89.10,13.80,-209.85,29.8
2026/05/20 21:20:04.85,IMU,-52.25,-18.55,998.54,0.45,-1.01,-1.31,-91.50,11.25,-206.70,29.6
2026/05/20 21:20:04.96,IMU,-42.97,-23.93,997.07,-1.91,0.82,0.80,-88.65,13.65,-210.30,29.8
2026/05/20 21:20:05.06,IMU,-57.13,-9.77,1013.67,-3.05,-1.10,-0.69,-89.10,13.35,-209.10,30.1
2026/05/20 21:20:05.16,IMU,-33.20,-26.37,1005.86,-0.48,-0.78,-0.24,-87.00,13.80,-210.60,29.6
2026/05/20 21:20:05.26,IMU,-39.06,-42.48,1021.00,0.11,-0.59,-2.18,-90.60,11.55,-208.35,29.7
2026/05/20 21:20:05.36,IMU,-33.20,-37.11,996.09,-1.73,-2.49,3.40,-89.40,12.45,-210.75,30.1
2026/05/20 21:20:05.46,IMU,-42.48,-23.44,1006.35,-1.18,0.35,0.52,-87.90,13.65,-210.00,29.8
2026/05/20 21:20:05.56,IMU,-55.18,-20.02,998.54,0.00,-1.44,-0.85,-88.05,10.35,-210.15,29.8
2026/05/20 21:20:05.67,IMU,-53.22,-33.69,1001.46,-1.61,-0.07,0.76,-88.65,12.90,-210.30,29.8
2026/05/20 21:20:05.77,IMU,-60.06,-28.81,1004.88,-1.62,-0.01,-1.59,-87.75,12.30,-209.85,29.9
2026/05/20 21:20:05.87,IMU,-43.95,-9.28,1007.32,-1.60,2.23,-0.64,-92.40,9.30,-206.25,29.9
2026/05/20 21:20:05.97,IMU,-51.76,-17.09,1003.91,-0.79,-1.18,1.07,-88.80,13.80,-209.85,29.9
2026/05/20 21:20:06.07,IMU,-40.53,-21.48,1000.00,-1.23,1.40,0.56,-88.95,13.20,-210.00,29.7
2026/05/20 21:20:06.17,IMU,-49.80,-8.30,1004.88,2.03,1.44,0.27,-89.70,11.25,-211.50,29.9
2026/05/20 21:20:06.27,IMU,-43.46,-25.88,1011.72,-1.11,0.96,2.92,-89.10,13.05,-210.90,30.1
2026/05/20 21:20:06.40,IMU,-45.90,-20.51,995.61,0.31,-0.20,-1.80,-87.45,13.65,-210.00,29.8
2026/05/20 21:20:06.50,IMU,-48.34,-30.27,1000.00,-0.95,-0.47,-1.00,-87.75,12.60,-211.20,29.9
2026/05/20 21:20:06.60,IMU,-49.32,-23.44,986.82,0.18,1.87,-0.76,-88.05,12.30,-209.85,29.9
2026/05/20 21:20:06.70,IMU,-42.97,-30.27,1000.00,-1.73,-0.56,-0.56,-90.45,8.70,-205.95,29.8
2026/05/20 21:20:06.80,IMU,-40.04,-11.23,993.16,0.72,-0.51,0.62,-88.95,11.25,-210.00,29.9
2026/05/20 21:20:06.90,IMU,-30.76,-6.84,992.68,-1.28,0.54,-1.15,-91.05,8.40,-207.60,29.9
2026/05/20 21:20:07.00,IMU,-46.39,-23.93,1007.32,-0.44,-1.66,3.23,-89.40,11.70,-210.30,29.9
2026/05/20 21:20:07.10,IMU,-41.99,-22.95,1015.63,1.50,2.95,1.20,-88.05,12.30,-209.40,29.9
2026/05/20 21:20:07.20,IMU,-45.41,-30.27,996.09,-0.52,0.86,-1.47,-87.90,12.15,-211.50,29.9
2026/05/20 21:20:07.30,IMU,-36.62,-13.18,1013.18,-1.65,-3.39,2.50,-89.40,11.70,-210.30,29.9
2026/05/20 21:20:07.40,IMU,-52.73,-10.25,1014.16,-0.81,-1.36,2.18,-89.10,11.10,-210.90,29.8
2026/05/20 21:20:07.50,IMU,-42.97,-21.97,1007.81,-0.35,0.11,-2.53,-89.85,12.60,-209.85,29.8
2026/05/20 21:20:07.60,IMU,-50.78,-8.79,1011.72,0.95,-2.47,-0.34,-88.35,12.60,-210.60,29.8
2026/05/20 21:20:07.70,IMU,-47.36,-21.48,1014.16,-1.85,0.47,-0.05,-88.05,12.30,-209.85,29.9
2026/05/20 21:20:07.83,IMU,-48.83,-10.74,1001.46,-0.76,-0.47,-1.01,-89.70,12.45,-211.05,29.9
2026/05/20 21:20:07.93,IMU,-45.41,-22.95,984.38,-0.93,1.45,-0.22,-92.10,10.80,-206.85,29.8
2026/05/20 21:20:08.03,IMU,-52.25,-10.25,987.30,1.47,1.00,-0.40,-87.90,13.95,-210.75,29.9
2026/05/20 21:20:08.13,IMU,-63.48,-15.14,958.50,0.03,0.69,-0.99,-92.70,10.95,-208.20,30.1
2026/05/20 21:20:08.23,IMU,-57.62,-1.95,1002.44,0.51,-0.11,-0.39,-88.65,13.65,-210.75,29.8
2026/05/20 21:20:08.33,IMU,-41.02,-9.28,990.72,-1.28,1.70,-3.50,-88.05,13.05,-211.20,29.8
2026/05/20 21:20:08.43,IMU,-38.09,-17.58,999.51,-0.50,1.14,2.15,-87.45,12.45,-210.75,29.9
2026/05/20 21:20:08.53,IMU,-43.95,-21.97,1013.18,2.48,-0.02,0.31,-88.35,13.05,-211.65,30.0
2026/05/20 21:20:08.63,IMU,-58.11,-28.32,1014.65,-0.62,0.26,0.76,-87.75,11.85,-210.60,29.9
2026/05/20 21:20:08.73,IMU,-36.13,-21.97,1007.32,-0.39,1.28,1.32,-88.20,12.45,-210.75,29.7
2026/05/20 21:20:08.83,IMU,-46.39,-22.46,1016.60,-0.48,-1.50,1.48,-88.05,11.55,-210.60,30.0
2026/05/20 21:20:08.94,IMU,-40.04,-32.71,1003.91,-0.32,1.23,1.06,-92.70,10.50,-205.35,29.9
2026/05/20 21:20:09.04,IMU,-29.30,-28.81,997.56,-0.46,-1.05,-0.51,-90.30,13.05,-210.60,29.8
2026/05/20 21:20:09.14,IMU,-54.20,-17.09,992.19,-1.14,-0.94,1.58,-88.65,12.90,-211.80,29.8
2026/05/20 21:20:09.24,IMU,-49.80,-28.32,983.40,0.20,1.47,0.86,-89.55,11.85,-210.90,29.9
2026/05/20 21:20:09.34,IMU,-25.39,21.97,999.51,2.48,3.46,-2.78,-89.10,11.55,-210.15,29.9
2026/05/20 21:20:09.44,IMU,-62.01,-26.86,995.12,-1.87,-1.69,-1.76,-88.35,11.85,-211.65,30.0
2026/05/20 21:20:09.55,IMU,-47.85,28.32,995.61,-0.73,0.89,3.24,-88.20,11.25,-210.75,29.8
2026/05/20 21:20:09.65,IMU,-46.88,-35.64,978.03,-2.43,-0.86,0.21,-89.55,12.60,-211.65,29.9
2026/05/20 21:20:09.75,IMU,-41.02,-5.86,1007.81,-0.39,-0.97,1.72,-87.90,11.70,-210.75,29.6
2026/05/20 21:20:09.86,IMU,-40.53,-22.95,998.05,-0.68,-0.33,-0.25,-88.35,13.35,-210.15,30.0
2026/05/20 21:20:09.96,IMU,-53.71,-10.25,993.65,-1.02,-0.44,1.30,-89.10,13.05,-209.85,29.8
2026/05/20 21:20:10.06,IMU,-52.73,-32.71,1000.98,-1.31,2.18,1.57,-87.90,12.90,-210.00,30.2
2026/05/20 21:20:10.18,IMU,-41.50,-28.81,1003.42,-1.28,0.22,-0.99,-89.10,11.85,-210.90,29.8
2026/05/20 21:20:10.28,IMU,-52.73,-19.04,999.02,-2.07,0.88,1.74,-88.65,12.90,-211.80,30.0
2026/05/20 21:20:10.38,IMU,-37.60,-28.32,1014.16,-0.79,-1.40,2.57,-89.40,12.15,-212.10,29.9
2026/05/20 21:20:10.48,IMU,-40.04,-29.79,1009.77,-0.88,-2.21,-0.14,-88.05,13.80,-210.60,29.8
2026/05/20 21:20:10.58,IMU,-40.53,-26.86,1004.39,-0.32,-1.08,0.43,-87.75,11.10,-210.15,30.1
2026/05/20 21:20:10.68,IMU,-42.97,-29.30,992.19,-1.51,-1.67,1.56,-89.70,12.45,-211.05,29.7
2026/05/20 21:20:10.78,IMU,-49.80,-21.00,991.70,-1.98,0.24,2.30,-89.55,12.30,-211.20,29.9
2026/05/20 21:20:10.88,IMU,-53.22,-17.09,1005.37,-0.08,-0.80,-0.15,-88.20,13.20,-210.30,29.9
2026/05/20 21:20:10.99,IMU,-35.64,-18.07,1004.88,-1.32,2.66,-2.52,-91.50,10.50,-206.70,30.3
2026/05/20 21:20:11.09,IMU,-41.02,-8.79,997.56,-1.11,-0.38,0.15,-89.85,11.85,-209.85,30.3
2026/05/20 21:20:11.19,IMU,32.23,-142.09,956.05,-2.15,-2.96,1.56,-88.35,13.05,-210.15,30.2
2026/05/20 21:20:11.29,IMU,-21.97,16.11,981.45,-1.72,-1.97,-3.08,-88.95,11.70,-210.75,30.3
2026/05/20 21:20:11.39,IMU,-31.25,-20.51,1024.41,-0.02,0.82,0.39,-89.40,12.45,-210.00,30.2
2026/05/20 21:20:11.49,IMU,-42.97,-47.85,1001.46,-1.24,1.85,1.34,-89.10,12.60,-210.15,29.9
2026/05/20 21:20:11.61,IMU,-55.18,-0.49,996.58,0.32,1.57,-0.15,-86.70,12.90,-210.00,30.1
2026/05/20 21:20:11.71,IMU,-41.99,-36.62,999.02,-1.60,-2.14,-1.35,-89.70,11.70,-209.25,29.9
2026/05/20 21:20:11.81,IMU,-60.06,-21.97,1001.46,0.43,0.28,0.27,-88.65,12.15,-211.05,29.8
2026/05/20 21:20:11.91,IMU,-50.29,-27.83,1002.44,2.24,-0.25,1.72,-89.40,12.90,-210.30,30.1
2026/05/20 21:20:12.01,IMU,-53.22,-13.18,979.00,-0.65,0.18,1.09,-92.10,11.10,-206.55,29.9
2026/05/20 21:20:12.11,IMU,-37.60,-18.07,998.05,-2.24,-0.03,-1.78,-87.90,13.20,-210.30,30.0
