Timestamp,Sensor,AccX,AccY,AccZ,GyrX,GyrY,GyrZ,MagX,MagY,MagZ,Temp
2026/05/04 21:56:14.04,IMU,874.02,288.57,-362.79,7.45,-21.11,10.76,-62.25,8.40,-28.95,24.3
2026/05/04 21:56:14.14,IMU,906.25,300.78,-359.38,-0.06,-10.88,1.92,-58.65,11.55,-32.55,24.5
2026/05/04 21:56:14.24,IMU,876.46,284.67,-408.69,-0.18,-8.82,1.92,-57.30,10.20,-32.70,24.4
2026/05/04 21:56:14.34,IMU,870.61,307.62,-345.70,0.35,-11.01,-0.37,-57.45,11.10,-33.60,24.4
2026/05/04 21:56:14.44,IMU,873.54,281.25,-365.72,-1.02,11.58,-4.99,-57.15,8.85,-33.60,24.4
2026/05/04 21:56:14.54,IMU,872.07,296.88,-406.25,3.23,-0.79,1.44,-57.15,10.80,-33.60,24.3
2026/05/04 21:56:14.64,IMU,857.91,295.90,-393.07,19.82,15.88,-13.43,-57.90,10.80,-32.55,24.1
2026/05/04 21:56:14.74,IMU,877.93,256.35,-302.25,-8.23,20.77,7.27,-59.55,9.75,-33.45,24.3
2026/05/04 21:56:14.85,IMU,880.86,275.88,-306.15,-5.05,4.53,6.58,-58.50,9.45,-32.70,24.4
2026/05/04 21:56:14.95,IMU,877.44,287.60,-388.18,-1.18,0.62,0.25,-58.95,10.35,-31.80,24.4
2026/05/04 21:56:15.06,IMU,891.60,276.37,-339.84,1.65,-0.99,-1.93,-60.45,8.10,-28.20,24.2
2026/05/04 21:56:15.16,IMU,872.56,273.44,-345.70,9.01,0.14,7.65,-60.75,9.60,-28.20,24.4
2026/05/04 21:56:15.26,IMU,877.44,288.09,-324.22,4.44,-0.49,3.72,-57.90,10.35,-31.80,24.3
2026/05/04 21:56:15.36,IMU,899.41,287.60,-333.50,-1.06,-1.91,4.13,-57.30,8.70,-32.70,24.3
2026/05/04 21:56:15.46,IMU,842.29,281.25,-363.77,-0.76,4.01,-2.53,-57.90,9.30,-33.00,24.4
2026/05/04 21:56:15.56,IMU,920.41,287.60,-351.56,-1.91,-0.54,-4.35,-57.45,10.80,-33.30,24.2
2026/05/04 21:56:15.66,IMU,870.12,279.30,-356.93,6.37,-17.52,1.72,-58.50,9.45,-32.70,24.1
2026/05/04 21:56:15.76,IMU,833.98,317.38,-458.01,-4.47,-5.00,8.29,-57.15,9.60,-33.60,24.0
2026/05/04 21:56:15.86,IMU,855.96,263.18,-451.66,-2.59,6.27,1.64,-58.95,10.05,-32.25,24.0
2026/05/04 21:56:15.96,IMU,875.49,312.99,-443.36,-5.11,-12.66,-1.05,-57.00,9.75,-34.65,24.3
2026/05/04 21:56:16.07,IMU,878.42,266.11,-465.82,4.97,-15.59,-0.18,-57.45,9.30,-34.80,24.2
2026/05/04 21:56:16.17,IMU,850.10,236.33,-433.11,18.52,-3.50,-4.67,-55.05,7.95,-34.20,24.0
2026/05/04 21:56:16.27,IMU,822.27,250.98,-445.31,24.05,-1.81,-6.62,-55.35,6.60,-35.55,24.3
2026/05/04 21:56:16.37,IMU,858.89,221.68,-442.87,9.08,2.18,-11.80,-56.25,7.95,-33.45,24.3
2026/05/04 21:56:16.47,IMU,852.05,218.75,-387.21,7.24,19.02,-6.66,-55.80,9.00,-34.20,24.3
2026/05/04 21:56:16.58,IMU,828.13,261.72,-441.41,-6.50,17.73,2.03,-57.30,9.75,-33.15,24.1
2026/05/04 21:56:16.68,IMU,851.07,228.03,-443.85,-3.46,12.12,0.63,-57.15,8.40,-33.30,24.2
2026/05/04 21:56:16.78,IMU,912.60,312.01,-401.37,-16.28,16.02,16.04,-56.85,9.30,-33.30,24.3
2026/05/04 21:56:16.88,IMU,847.66,269.53,-434.08,-8.52,-12.64,10.09,-56.85,8.85,-33.00,24.3
2026/05/04 21:56:16.98,IMU,853.03,265.63,-437.50,-3.07,-11.83,-2.27,-57.90,8.40,-33.00,24.1
2026/05/04 21:56:17.08,IMU,846.68,250.00,-416.02,10.46,-20.68,2.47,-56.55,9.75,-34.65,24.2
2026/05/04 21:56:17.18,IMU,865.72,234.38,-449.22,1.15,-0.07,-5.46,-59.40,6.15,-30.45,24.1
2026/05/04 21:56:17.28,IMU,854.00,269.53,-449.71,1.85,-2.95,-0.82,-56.25,9.45,-33.15,24.3
2026/05/04 21:56:17.38,IMU,844.24,238.28,-399.41,-3.83,11.38,-8.37,-56.85,7.65,-33.00,23.9
2026/05/04 21:56:17.48,IMU,861.33,258.79,-419.92,0.18,4.28,3.57,-56.10,9.30,-34.80,23.8
2026/05/04 21:56:17.58,IMU,858.40,265.63,-423.83,-0.17,3.92,4.56,-57.90,9.30,-33.30,24.2
2026/05/04 21:56:17.72,IMU,822.27,269.53,-399.41,-6.93,-2.62,0.91,-56.10,8.10,-35.10,24.0
2026/05/04 21:56:17.82,IMU,941.41,150.39,-210.45,24.21,-6.22,-50.46,-56.85,7.65,-35.10,24.0
2026/05/04 21:56:17.92,IMU,859.38,267.09,-537.11,22.44,-2.67,-28.12,-57.15,10.35,-34.05,24.2
2026/05/04 21:56:18.02,IMU,869.14,299.80,-480.96,-3.62,-13.93,2.44,-57.00,10.50,-35.25,24.0
2026/05/04 21:56:18.13,IMU,821.78,270.02,-466.80,2.85,-20.05,7.37,-57.75,7.50,-32.40,24.1
2026/05/04 21:56:18.23,IMU,852.05,278.32,-471.19,-0.23,-3.14,-3.64,-56.85,10.80,-35.85,24.0
2026/05/04 21:56:18.33,IMU,828.61,279.79,-468.26,0.24,15.47,-7.45,-56.40,11.85,-35.85,23.9
2026/05/04 21:56:18.43,IMU,859.38,361.33,-434.08,-5.60,8.10,-6.98,-56.55,11.25,-34.65,24.3
2026/05/04 21:56:18.53,IMU,781.25,329.59,-515.14,29.52,-31.06,-10.59,-57.90,11.55,-35.10,24.1
2026/05/04 21:56:18.63,IMU,792.97,304.20,-489.75,-0.04,-9.61,-2.60,-57.30,10.50,-35.70,24.1
2026/05/04 21:56:18.73,IMU,793.46,308.59,-503.91,-4.86,-14.80,-3.38,-55.50,11.25,-36.00,24.2
2026/05/04 21:56:18.85,IMU,780.76,285.64,-567.38,4.05,-7.17,6.99,-54.60,11.55,-37.65,24.2
2026/05/04 21:56:18.95,IMU,850.10,250.00,-497.07,15.63,-34.73,-9.45,-53.70,9.75,-37.80,24.2
2026/05/04 21:56:19.05,IMU,799.80,356.45,-492.19,-0.22,39.79,-4.90,-55.50,10.95,-36.45,24.2
2026/05/04 21:56:19.17,IMU,801.27,279.30,-481.93,-4.91,5.30,3.18,-60.30,7.20,-30.90,23.8
2026/05/04 21:56:19.27,IMU,822.75,305.18,-477.05,-3.65,6.78,-6.76,-57.45,11.10,-35.10,24.0
2026/05/04 21:56:19.37,IMU,841.80,278.81,-455.08,9.71,-12.08,1.52,-57.30,10.50,-34.95,24.3
2026/05/04 21:56:19.47,IMU,840.82,315.43,-500.00,1.86,-7.55,-12.50,-60.60,9.00,-29.10,24.4
2026/05/04 21:56:19.57,IMU,815.92,276.37,-487.30,13.68,-10.23,-3.88,-56.10,9.60,-35.85,24.2
2026/05/04 21:56:19.67,IMU,817.38,302.73,-479.49,1.69,4.53,-2.64,-57.00,10.50,-34.95,24.2
2026/05/04 21:56:19.77,IMU,805.18,365.23,-629.39,-0.85,-10.15,14.28,-55.05,11.70,-33.45,24.2
2026/05/04 21:56:19.87,IMU,894.04,368.65,-594.73,4.73,-11.13,2.60,-55.05,9.45,-35.25,24.1
2026/05/04 21:56:19.97,IMU,787.11,271.00,-542.48,6.28,-8.44,5.51,-55.35,9.60,-36.90,24.3
2026/05/04 21:56:20.07,IMU,778.81,254.88,-533.69,5.37,5.82,-6.98,-54.90,8.85,-35.55,24.3
2026/05/04 21:56:20.17,IMU,790.04,319.34,-452.15,-7.84,25.86,-3.98,-55.80,9.45,-36.75,24.1
2026/05/04 21:56:20.27,IMU,830.08,298.83,-509.28,6.71,15.44,-7.92,-56.25,9.00,-35.25,24.2
2026/05/04 21:56:20.37,IMU,767.09,291.99,-487.79,1.87,5.05,-1.13,-57.00,9.45,-35.25,24.3
2026/05/04 21:56:20.47,IMU,824.71,306.64,-449.71,11.89,10.03,-7.67,-58.05,10.50,-33.15,24.0
2026/05/04 21:56:20.57,IMU,804.69,258.79,-484.86,1.86,0.39,2.21,-58.05,7.95,-33.90,24.3
2026/05/04 21:56:20.67,IMU,889.65,324.71,-414.55,-0.91,15.98,-4.32,-58.65,9.30,-31.20,24.2
2026/05/04 21:56:20.77,IMU,838.87,297.36,-439.94,-2.50,-4.56,-3.79,-58.05,8.25,-32.10,24.1
2026/05/04 21:56:20.87,IMU,817.87,232.42,-500.00,-0.63,-5.34,0.84,-58.65,10.80,-32.55,24.0
2026/05/04 21:56:20.97,IMU,820.80,322.75,-461.91,-2.16,-2.69,-3.43,-58.65,10.80,-32.55,24.1
2026/05/04 21:56:21.07,IMU,853.03,350.59,-483.40,-9.31,6.82,-5.39,-58.05,10.95,-32.70,24.3
2026/05/04 21:56:21.18,IMU,850.59,318.85,-438.48,-1.91,-14.83,4.57,-58.80,9.75,-31.35,24.1
2026/05/04 21:56:21.28,IMU,795.41,314.45,-495.61,0.13,0.11,-2.47,-58.05,9.45,-34.20,24.4
2026/05/04 21:56:21.38,IMU,813.96,345.21,-491.21,-1.37,8.20,-0.40,-57.15,10.80,-33.30,24.1
2026/05/04 21:56:21.48,IMU,797.85,315.92,-476.56,4.53,-3.68,-2.23,-58.50,10.20,-33.45,24.1
2026/05/04 21:56:21.58,IMU,817.38,20.51,-544.92,-0.44,7.24,-0.22,-58.05,10.95,-33.15,24.3
2026/05/04 21:56:21.68,IMU,794.43,321.78,-487.79,2.62,-11.99,0.63,-57.90,10.80,-34.35,24.2
2026/05/04 21:56:21.78,IMU,785.16,295.90,-517.58,1.61,-6.18,-1.49,-59.40,9.30,-31.50,24.1
2026/05/04 21:56:21.88,IMU,780.27,363.28,-445.31,-6.82,9.56,-5.11,-56.25,10.20,-34.65,24.0
2026/05/04 21:56:21.98,IMU,746.09,94.73,-530.27,11.29,2.52,-0.41,-58.20,10.35,-34.80,24.2
2026/05/04 21:56:22.08,IMU,810.06,296.88,-478.52,0.89,22.24,0.87,-57.15,10.80,-35.10,24.2
2026/05/04 21:56:22.18,IMU,777.34,185.06,-520.51,-3.77,6.07,-1.18,-56.25,8.25,-33.90,24.3
2026/05/04 21:56:22.32,IMU,767.58,438.48,-370.12,-26.87,-40.80,-19.75,-58.65,11.10,-33.00,24.2
2026/05/04 21:56:22.42,IMU,768.07,331.54,-604.49,-24.59,38.64,-13.87,-57.30,10.95,-34.20,24.0
2026/05/04 21:56:22.52,IMU,807.62,415.04,-384.28,24.37,-10.45,5.73,-57.45,11.10,-35.85,24.3
2026/05/04 21:56:22.62,IMU,819.34,308.59,-505.37,2.88,-7.34,0.91,-57.75,10.50,-36.45,24.3
2026/05/04 21:56:22.72,IMU,736.82,332.03,-549.80,3.90,-6.25,4.29,-57.00,10.95,-36.45,24.3
2026/05/04 21:56:22.82,IMU,771.48,297.85,-540.53,-1.93,-3.42,-0.79,-56.40,10.80,-35.85,24.3
2026/05/04 21:56:22.92,IMU,783.20,340.82,-535.64,13.93,-6.86,-0.95,-57.00,9.75,-35.70,24.4
2026/05/04 21:56:23.02,IMU,779.30,339.36,-520.51,-17.17,4.73,0.93,-56.40,10.80,-35.55,24.3
2026/05/04 21:56:23.12,IMU,750.00,353.52,-556.15,31.18,-19.53,3.18,-56.85,9.60,-36.60,24.3
2026/05/04 21:56:23.22,IMU,731.45,278.32,-641.60,16.44,-7.05,-1.74,-54.45,9.75,-38.25,24.2
2026/05/04 21:56:23.32,IMU,771.97,324.71,-581.54,6.40,-14.57,1.64,-53.40,8.40,-37.35,24.1
2026/05/04 21:56:23.42,IMU,736.33,279.30,-586.91,3.11,-4.92,6.44,-54.60,8.10,-37.95,24.1
2026/05/04 21:56:23.52,IMU,736.82,247.07,-611.33,12.29,-7.31,0.10,-53.25,9.00,-38.25,24.2
2026/05/04 21:56:23.62,IMU,711.43,253.91,-632.81,6.26,4.44,-2.05,-51.75,7.50,-38.85,24.2
2026/05/04 21:56:23.75,IMU,697.75,226.56,-703.61,10.69,-12.14,1.85,-51.60,7.35,-40.20,24.4
2026/05/04 21:56:23.85,IMU,699.71,151.37,-671.88,2.31,2.53,1.71,-52.35,5.10,-39.45,24.3
2026/05/04 21:56:23.94,IMU,693.85,169.92,-693.85,0.69,10.47,0.93,-50.85,5.40,-40.20,24.2
2026/05/04 21:56:24.05,IMU,700.20,187.01,-710.45,0.40,-1.79,4.13,-51.45,4.80,-40.05,24.0
2026/05/04 21:56:24.15,IMU,695.31,198.24,-716.80,4.66,-8.98,-0.75,-50.40,5.25,-40.65,24.3
2026/05/04 21:56:24.25,IMU,688.48,192.87,-717.77,-0.91,6.79,1.04,-50.70,5.55,-40.05,24.2
2026/05/04 21:56:24.35,IMU,699.71,193.36,-686.04,1.61,3.32,1.90,-50.10,3.60,-39.45,24.3
2026/05/04 21:56:24.45,IMU,701.66,162.11,-673.83,0.15,6.49,0.24,-50.40,4.05,-40.05,24.1
2026/05/04 21:56:24.55,IMU,714.84,182.62,-678.71,1.34,5.58,-0.95,-49.35,3.90,-40.50,24.1
2026/05/04 21:56:24.65,IMU,699.22,199.22,-690.92,1.83,-7.23,1.76,-49.95,3.75,-40.35,24.1
2026/05/04 21:56:24.75,IMU,707.52,186.52,-701.17,1.56,2.70,0.69,-50.40,4.05,-41.10,24.2
2026/05/04 21:56:24.85,IMU,693.85,164.06,-696.78,0.93,4.50,0.80,-50.85,3.60,-40.95,24.1
2026/05/04 21:56:24.95,IMU,693.36,172.85,-701.17,0.96,-0.44,-1.89,-49.65,4.50,-40.35,24.2
2026/05/04 21:56:25.05,IMU,692.87,162.60,-723.63,1.73,-4.04,-2.63,-49.95,4.05,-40.65,24.1
2026/05/04 21:56:25.17,IMU,682.13,169.43,-691.41,1.31,4.64,4.02,-50.10,3.60,-40.20,24.1
2026/05/04 21:56:25.27,IMU,704.10,155.27,-696.29,0.49,0.66,0.59,-49.95,3.30,-39.60,24.2
2026/05/04 21:56:25.37,IMU,713.38,180.18,-697.27,-0.21,1.28,-0.16,-49.80,4.35,-41.25,23.8
2026/05/04 21:56:25.47,IMU,683.59,181.64,-722.17,1.23,-0.26,3.92,-49.65,3.30,-40.05,24.3
2026/05/04 21:56:25.57,IMU,703.61,156.74,-693.85,-4.23,8.05,-2.11,-49.20,3.75,-40.05,24.1
2026/05/04 21:56:25.67,IMU,699.22,154.30,-713.87,-1.80,4.61,-4.27,-49.05,2.40,-40.20,24.1
2026/05/04 21:56:25.77,IMU,677.73,188.48,-736.82,2.50,1.45,-2.95,-49.95,3.30,-40.65,24.1
2026/05/04 21:56:25.87,IMU,708.98,175.78,-713.87,2.08,7.03,2.82,-48.90,2.55,-40.05,24.0
2026/05/04 21:56:25.97,IMU,698.24,143.55,-710.45,4.17,1.37,-0.96,-50.55,2.70,-39.75,24.0
2026/05/04 21:56:26.07,IMU,698.24,167.97,-724.61,5.56,2.98,3.31,-51.30,3.60,-39.75,23.9
2026/05/04 21:56:26.17,IMU,713.38,143.55,-704.10,-0.16,-0.38,-3.99,-49.95,2.55,-39.30,24.0
2026/05/04 21:56:26.30,IMU,693.85,164.06,-713.87,-5.47,13.16,-2.03,-49.65,3.00,-38.85,24.0
2026/05/04 21:56:26.40,IMU,708.98,157.23,-675.29,-2.77,9.72,-0.27,-49.65,3.00,-38.85,24.2
2026/05/04 21:56:26.50,IMU,713.87,189.94,-690.92,1.46,-5.27,4.52,-50.70,2.55,-39.60,24.2
2026/05/04 21:56:26.62,IMU,686.04,139.16,-709.96,-0.87,7.63,4.31,-49.35,3.15,-39.45,23.9
2026/05/04 21:56:26.72,IMU,679.20,111.82,-747.56,-4.99,6.95,4.06,-48.75,1.95,-40.20,23.9
2026/05/04 21:56:26.82,IMU,706.54,140.63,-724.12,-1.14,1.01,4.05,-48.75,2.70,-40.20,24.1
2026/05/04 21:56:26.92,IMU,714.84,131.35,-693.85,-4.04,5.89,6.76,-52.80,0.90,-35.55,24.3
2026/05/04 21:56:27.02,IMU,711.43,145.51,-725.10,-6.91,-3.06,1.77,-49.35,2.40,-39.45,24.3
2026/05/04 21:56:27.12,IMU,681.15,146.97,-756.35,0.41,-9.60,9.31,-48.15,2.55,-41.40,24.1
2026/05/04 21:56:27.22,IMU,655.76,102.05,-724.12,6.35,-13.05,6.03,-50.10,0.90,-40.20,24.1
2026/05/04 21:56:27.32,IMU,719.24,90.33,-685.06,-0.22,-5.78,11.47,-48.00,0.90,-39.75,24.1
2026/05/04 21:56:27.42,IMU,659.67,56.15,-809.08,-12.76,9.99,6.41,-45.75,0.90,-41.25,24.1
2026/05/04 21:56:27.52,IMU,659.18,91.80,-806.64,-0.56,-6.54,2.82,-46.50,1.20,-42.75,24.3
2026/05/04 21:56:27.62,IMU,684.57,121.09,-703.13,-3.32,0.69,-1.51,-46.50,1.20,-42.00,23.9
2026/05/04 21:56:27.75,IMU,715.82,90.33,-674.80,-5.66,-5.27,-3.65,-46.80,0.90,-41.55,23.9
2026/05/04 21:56:27.85,IMU,697.75,136.23,-713.87,4.39,-9.63,0.83,-45.75,1.95,-43.35,24.1
2026/05/04 21:56:27.95,IMU,699.71,85.45,-747.07,19.60,-4.76,-5.17,-45.75,0.90,-42.75,24.2
2026/05/04 21:56:28.05,IMU,645.51,134.77,-806.15,9.56,-5.95,-13.53,-46.05,0.45,-41.55,24.1
2026/05/04 21:56:28.15,IMU,643.55,42.48,-818.85,13.68,-17.86,-5.08,-46.35,-0.75,-42.15,24.1
2026/05/04 21:56:28.25,IMU,652.83,141.11,-746.09,20.21,12.36,-9.33,-46.50,0.90,-41.55,24.1
2026/05/04 21:56:28.35,IMU,648.44,78.12,-742.68,8.27,11.39,-1.18,-47.25,-1.65,-37.65,24.0
2026/05/04 21:56:28.45,IMU,677.73,91.80,-724.61,11.27,8.95,-4.38,-47.10,-1.05,-40.35,24.2
2026/05/04 21:56:28.55,IMU,646.97,80.08,-776.86,-2.18,10.04,-13.29,-47.40,-0.30,-38.25,24.1
2026/05/04 21:56:28.65,IMU,652.83,111.82,-796.39,13.69,-14.84,-7.95,-48.75,0.45,-39.15,24.1
2026/05/04 21:56:28.76,IMU,640.63,35.64,-804.69,16.11,10.13,-14.80,-49.20,0.00,-38.25,24.0
2026/05/04 21:56:28.86,IMU,679.69,38.57,-732.42,14.31,7.34,-11.73,-49.35,-0.15,-37.65,24.0
2026/05/04 21:56:28.96,IMU,671.88,50.29,-734.86,8.86,2.15,-9.62,-49.35,0.15,-36.90,24.1
2026/05/04 21:56:29.06,IMU,650.88,-1.46,-746.58,8.02,3.69,-9.60,-50.10,0.15,-36.90,24.1
2026/05/04 21:56:29.18,IMU,660.64,-6.35,-690.43,3.79,-6.05,-3.40,-50.55,0.45,-37.95,24.0
2026/05/04 21:56:29.28,IMU,678.22,41.99,-836.43,12.87,-4.05,2.82,-49.65,-1.05,-37.50,24.0
2026/05/04 21:56:29.38,IMU,559.08,15.63,-790.53,17.36,-7.44,16.41,-47.40,-0.30,-38.55,24.1
2026/05/04 21:56:29.48,IMU,577.64,21.48,-877.44,-8.21,-0.47,2.85,-48.00,-0.15,-37.35,23.8
2026/05/04 21:56:29.58,IMU,575.68,51.76,-868.65,6.44,-10.31,-3.16,-49.65,-0.30,-38.25,24.0
2026/05/04 21:56:29.68,IMU,575.68,51.76,-805.66,6.91,-1.40,-6.86,-48.00,-0.45,-38.40,24.0
2026/05/04 21:56:29.78,IMU,625.00,99.61,-840.82,-6.57,6.82,-3.41,-51.75,-2.55,-36.45,24.4
2026/05/04 21:56:29.88,IMU,627.44,51.76,-786.13,-0.04,11.89,10.37,-49.20,-0.75,-40.05,24.1
2026/05/04 21:56:29.98,IMU,677.25,49.80,-757.81,-0.87,16.18,13.74,-50.10,-1.65,-38.40,24.1
2026/05/04 21:56:30.08,IMU,622.07,-5.37,-815.43,13.80,15.81,18.92,-49.65,-2.25,-37.05,24.2
2026/05/04 21:56:30.18,IMU,661.13,-76.17,-749.51,6.24,-8.57,4.17,-48.45,-3.75,-36.45,24.2
2026/05/04 21:56:30.30,IMU,662.60,-45.90,-750.00,2.15,29.86,-4.88,-48.45,-4.05,-36.75,24.2
2026/05/04 21:56:30.40,IMU,735.35,-36.13,-703.13,7.62,18.56,1.73,-49.05,-4.35,-34.80,24.0
2026/05/04 21:56:30.50,IMU,717.77,5.37,-741.70,0.93,21.37,-0.59,-50.85,-4.35,-31.50,24.1
2026/05/04 21:56:30.61,IMU,803.71,-51.27,-586.91,11.86,32.21,-11.53,-52.20,-4.80,-29.85,24.0
2026/05/04 21:56:30.71,IMU,795.90,-70.80,-586.43,23.45,41.54,-12.11,-53.40,-4.65,-27.60,24.1
2026/05/04 21:56:30.81,IMU,804.20,-47.36,-554.20,4.63,52.89,-29.97,-55.05,-3.30,-24.15,23.8
2026/05/04 21:56:30.91,IMU,859.38,-13.18,-430.18,17.86,45.02,-27.04,-56.10,-2.70,-22.50,24.1
2026/05/04 21:56:31.01,IMU,860.84,-41.50,-497.56,16.04,39.20,0.03,-57.30,-3.30,-21.90,24.0
2026/05/04 21:56:31.11,IMU,806.15,-130.86,-530.27,-6.15,36.21,0.02,-56.10,-3.15,-21.45,24.1
2026/05/04 21:56:31.21,IMU,815.92,-67.87,-627.44,-14.86,50.83,-18.02,-58.50,-6.00,-17.25,24.1
2026/05/04 21:56:31.31,IMU,819.34,-38.57,-504.39,-2.21,-60.25,2.50,-57.45,-3.15,-22.05,24.0
2026/05/04 21:56:31.41,IMU,836.43,-23.44,-646.00,-9.34,-14.10,-15.04,-56.40,-1.65,-22.80,24.1
2026/05/04 21:56:31.51,IMU,831.54,-17.58,-535.64,-17.47,8.37,-17.41,-57.30,-1.50,-25.20,23.8
2026/05/04 21:56:31.61,IMU,804.69,-45.41,-622.07,-2.32,-29.82,6.96,-56.25,0.00,-26.25,24.2
2026/05/04 21:56:31.71,IMU,777.34,11.23,-647.46,-12.18,-29.00,2.76,-55.65,-1.20,-28.95,24.1
2026/05/04 21:56:31.81,IMU,664.55,-34.18,-699.71,8.45,-60.74,2.05,-53.10,-1.65,-30.75,24.0
2026/05/04 21:56:31.91,IMU,635.25,-9.28,-854.00,-7.31,-56.83,21.73,-51.60,-1.95,-34.35,24.0
2026/05/04 21:56:32.01,IMU,524.41,-20.02,-859.38,-0.43,-22.67,-12.89,-48.90,-2.55,-38.25,23.9
2026/05/04 21:56:32.11,IMU,526.86,-30.76,-795.41,4.80,-8.29,10.02,-48.00,-1.95,-37.95,23.9
2026/05/04 21:56:32.21,IMU,490.72,-74.71,-905.76,-0.47,-1.88,3.17,-47.55,-1.65,-39.15,24.3
2026/05/04 21:56:32.34,IMU,389.65,20.51,-1159.67,22.13,77.02,-12.84,-47.55,-0.90,-37.65,24.0
2026/05/04 21:56:32.44,IMU,690.43,62.50,-673.83,-7.35,30.00,-3.68,-53.25,-2.25,-32.40,23.9
2026/05/04 21:56:32.54,IMU,720.70,25.39,-715.33,-9.41,-1.82,-3.66,-53.10,-1.65,-31.80,24.0
2026/05/04 21:56:32.64,IMU,691.89,-21.00,-744.14,8.73,8.96,1.06,-52.35,-1.95,-32.25,24.2
2026/05/04 21:56:32.74,IMU,732.42,36.62,-673.83,-16.33,40.91,-13.07,-54.45,-0.75,-30.90,24.2
2026/05/04 21:56:32.84,IMU,682.13,-21.48,-745.12,2.26,1.22,11.85,-53.85,-1.20,-30.45,23.9
2026/05/04 21:56:32.94,IMU,740.72,31.25,-729.49,3.77,15.10,11.21,-53.85,-1.95,-29.40,23.9
2026/05/04 21:56:33.04,IMU,747.56,-25.39,-675.78,7.69,7.73,11.42,-53.40,-4.35,-30.00,23.8
2026/05/04 21:56:33.14,IMU,778.32,-64.45,-648.93,-5.14,11.44,-3.35,-52.05,-4.35,-28.65,23.9
2026/05/04 21:56:33.24,IMU,791.99,-33.69,-649.41,-1.97,6.14,-4.54,-53.10,-5.10,-28.65,23.7
2026/05/04 21:56:33.34,IMU,803.22,-45.90,-641.60,-2.31,0.47,4.55,-53.85,-3.90,-27.90,23.6
2026/05/04 21:56:33.44,IMU,747.07,-64.45,-611.33,2.85,5.29,-0.40,-53.85,-2.70,-27.15,24.0
2026/05/04 21:56:33.54,IMU,761.72,-21.00,-673.83,-1.06,1.59,0.02,-55.05,-2.25,-27.75,23.8
2026/05/04 21:56:33.64,IMU,781.74,-38.09,-673.83,0.37,-0.07,0.08,-55.35,-3.15,-27.90,23.6
2026/05/04 21:56:33.76,IMU,756.35,-3.42,-639.16,2.76,-14.94,1.15,-53.10,-3.60,-28.20,23.8
2026/05/04 21:56:33.86,IMU,714.36,-21.97,-695.31,-2.70,1.47,-8.69,-54.15,-3.60,-30.00,23.9
2026/05/04 21:56:33.96,IMU,720.21,-47.85,-732.91,-15.26,-23.05,-3.50,-51.45,-3.00,-31.65,23.7
2026/05/04 21:56:34.06,IMU,721.19,-40.53,-761.72,3.27,-19.08,-0.63,-52.35,-0.90,-32.25,24.0
2026/05/04 21:56:34.16,IMU,684.08,-18.07,-756.35,5.19,5.02,5.53,-51.00,-3.00,-32.40,24.0
2026/05/04 21:56:34.26,IMU,691.41,-28.32,-714.84,7.50,0.62,2.82,-51.75,-3.30,-31.35,24.0
2026/05/04 21:56:34.36,IMU,703.13,-21.97,-671.88,12.16,-5.73,1.04,-52.35,-3.60,-31.50,23.9
2026/05/04 21:56:34.46,IMU,702.15,-44.92,-700.20,-4.83,5.50,-0.96,-51.75,-3.30,-32.70,23.7
2026/05/04 21:56:34.56,IMU,679.69,-43.46,-731.45,0.53,-0.24,0.20,-52.80,-2.40,-32.25,24.0
2026/05/04 21:56:34.66,IMU,708.98,-60.06,-731.45,2.13,-7.15,-0.23,-52.35,-2.70,-31.80,24.1
2026/05/04 21:56:34.76,IMU,667.48,-33.69,-756.84,13.34,-12.28,3.95,-51.30,-3.90,-32.55,24.1
2026/05/04 21:56:34.88,IMU,674.32,-62.01,-799.32,7.93,4.79,3.16,-52.35,-2.70,-31.80,23.6
2026/05/04 21:56:34.98,IMU,682.62,-85.45,-744.63,13.72,-3.85,5.64,-51.30,-4.35,-32.25,23.8
2026/05/04 21:56:35.08,IMU,705.08,-81.54,-681.15,8.53,-0.16,0.27,-51.45,-6.00,-29.10,24.0
2026/05/04 21:56:35.19,IMU,746.58,-74.71,-663.09,-7.00,12.89,2.40,-51.75,-6.00,-29.55,23.9
2026/05/04 21:56:35.29,IMU,728.03,-99.12,-697.27,-2.80,13.34,3.95,-50.40,-4.80,-29.10,23.8
2026/05/04 21:56:35.39,IMU,750.49,-138.67,-634.77,-3.78,17.24,4.60,-53.25,-4.80,-28.80,23.7
2026/05/04 21:56:35.49,IMU,766.60,-112.30,-679.69,-1.34,12.27,3.45,-51.75,-6.45,-28.05,23.8
2026/05/04 21:56:35.59,IMU,754.39,-125.00,-683.59,-3.16,10.63,7.26,-50.55,-6.15,-28.95,23.7
2026/05/04 21:56:35.69,IMU,729.98,-90.82,-689.94,-0.60,25.33,1.80,-51.60,-5.10,-28.20,24.0
2026/05/04 21:56:35.79,IMU,734.38,-124.51,-677.25,1.69,5.53,9.12,-52.95,-5.55,-28.05,24.1
2026/05/04 21:56:35.89,IMU,770.02,-140.14,-666.99,3.68,-6.01,9.00,-50.40,-6.75,-29.55,24.0
2026/05/04 21:56:35.99,IMU,764.65,-135.25,-576.66,12.08,-19.85,6.76,-51.75,-7.95,-29.10,23.8
2026/05/04 21:56:36.09,IMU,757.32,-136.23,-659.67,-13.70,15.22,-0.01,-50.40,-7.20,-26.70,23.9
2026/05/04 21:56:36.19,IMU,779.30,-171.88,-601.56,0.78,6.24,1.94,-49.95,-8.25,-28.50,23.6
2026/05/04 21:56:36.29,IMU,748.54,-125.00,-609.86,-11.06,34.87,-4.85,-50.70,-6.45,-27.75,23.8
2026/05/04 21:56:36.39,IMU,741.21,-155.76,-680.18,-9.69,32.24,-7.33,-51.00,-8.25,-27.30,23.6
2026/05/04 21:56:36.49,IMU,717.29,-176.76,-667.97,-15.14,34.76,-5.84,-49.80,-8.40,-26.40,24.0
2026/05/04 21:56:36.59,IMU,750.98,-137.21,-628.91,-12.31,28.89,-7.79,-52.05,-6.90,-28.95,23.6
2026/05/04 21:56:36.69,IMU,768.07,-122.56,-661.13,-2.31,-1.37,-5.54,-51.75,-7.50,-27.75,23.7
2026/05/04 21:56:36.79,IMU,756.84,-109.37,-675.29,3.31,2.07,0.28,-49.95,-6.45,-29.55,24.0
2026/05/04 21:56:36.91,IMU,717.77,-114.75,-711.91,-12.53,-17.09,-1.22,-51.00,-6.00,-28.05,24.0
2026/05/04 21:56:37.01,IMU,727.05,-100.10,-695.31,4.44,-34.44,-4.02,-52.20,-5.25,-29.85,24.1
2026/05/04 21:56:37.11,IMU,734.86,-92.77,-670.90,6.48,-23.03,-1.76,-51.45,-5.25,-30.90,23.8
2026/05/04 21:56:37.21,IMU,722.17,-65.92,-741.70,0.37,18.36,-8.08,-50.40,-4.80,-30.30,23.6
2026/05/04 21:56:37.31,IMU,730.96,-55.18,-671.88,-4.92,10.69,-3.25,-53.85,-3.90,-31.50,23.7
2026/05/04 21:56:37.41,IMU,756.35,-41.02,-691.89,1.34,-13.05,5.34,-51.45,-4.80,-29.10,24.0
2026/05/04 21:56:37.53,IMU,741.70,-44.92,-691.89,1.35,5.85,0.56,-50.85,-3.90,-31.80,23.8
2026/05/04 21:56:37.63,IMU,718.26,-98.63,-722.66,4.11,8.60,2.80,-52.35,-4.35,-32.25,23.8
2026/05/04 21:56:37.73,IMU,730.47,-61.04,-732.91,0.37,9.53,5.82,-51.60,-5.10,-31.50,23.9
2026/05/04 21:56:37.83,IMU,721.19,-91.80,-712.40,-0.69,10.66,2.00,-51.75,-4.80,-30.60,23.8
2026/05/04 21:56:37.93,IMU,772.95,-57.13,-648.93,-0.07,15.27,3.38,-51.00,-5.55,-31.65,23.4
2026/05/04 21:56:38.03,IMU,735.35,-85.94,-708.98,-2.39,7.18,-0.17,-50.85,-5.85,-30.75,23.8
2026/05/04 21:56:38.13,IMU,757.81,-35.64,-607.91,-1.60,3.33,-2.86,-51.00,-4.80,-29.85,23.9
2026/05/04 21:56:38.23,IMU,747.56,-129.39,-671.39,0.37,7.29,0.09,-52.20,-6.45,-30.30,23.8
2026/05/04 21:56:38.36,IMU,740.72,-74.71,-693.85,-1.70,4.73,-0.02,-52.95,-5.55,-30.30,23.7
2026/05/04 21:56:38.46,IMU,773.44,-60.06,-623.54,5.37,2.31,-0.11,-52.05,-3.90,-30.75,23.8
2026/05/04 21:56:38.56,IMU,746.09,-68.36,-682.13,-0.92,16.96,-1.56,-51.75,-6.00,-30.60,23.8
2026/05/04 21:56:38.66,IMU,765.63,-78.61,-628.42,-2.52,12.96,2.00,-50.70,-4.80,-28.80,23.6
2026/05/04 21:56:38.76,IMU,741.21,-129.39,-667.97,-10.71,3.16,4.99,-51.30,-6.90,-30.00,23.6
2026/05/04 21:56:38.86,IMU,748.54,-139.65,-691.89,5.71,-5.11,-1.81,-52.20,-5.55,-29.10,23.6
2026/05/04 21:56:38.96,IMU,779.79,-102.54,-694.34,6.08,-2.76,12.28,-54.45,-7.50,-25.20,23.8
2026/05/04 21:56:39.06,IMU,759.28,-122.56,-675.29,3.42,-14.08,7.58,-50.85,-5.85,-28.65,23.8
2026/05/04 21:56:39.16,IMU,772.95,-123.54,-648.44,3.85,-7.79,2.18,-50.85,-7.35,-27.90,23.6
2026/05/04 21:56:39.26,IMU,762.70,-118.16,-666.50,3.37,-16.63,0.37,-51.30,-8.10,-27.90,23.6
2026/05/04 21:56:39.36,IMU,761.23,-107.91,-649.90,2.96,-13.27,1.00,-50.40,-6.75,-28.80,23.8
2026/05/04 21:56:39.48,IMU,722.66,-139.65,-699.71,-3.88,-3.35,-2.21,-50.40,-7.20,-29.55,23.8
2026/05/04 21:56:39.58,IMU,737.79,-123.54,-728.03,5.33,-5.32,1.86,-50.55,-6.15,-31.20,23.8
2026/05/04 21:56:39.68,IMU,703.61,-129.39,-741.21,-3.42,12.00,-0.01,-50.70,-6.00,-29.85,23.6
2026/05/04 21:56:39.79,IMU,699.22,-126.95,-759.28,3.81,4.47,0.15,-50.40,-6.45,-31.35,23.6
2026/05/04 21:56:39.89,IMU,692.38,-146.97,-721.19,2.21,14.91,-2.51,-49.80,-6.90,-31.20,23.8
2026/05/04 21:56:39.99,IMU,762.70,-104.98,-638.67,-3.54,7.40,-2.47,-49.65,-7.20,-28.80,23.6
2026/05/04 21:56:40.09,IMU,775.39,-130.86,-620.61,0.96,25.78,-17.47,-51.00,-7.20,-28.05,23.4
2026/05/04 21:56:40.19,IMU,758.79,-96.19,-624.02,-11.71,29.30,-19.28,-53.85,-5.85,-27.15,23.7
2026/05/04 21:56:40.29,IMU,771.00,-114.75,-622.07,-2.47,-5.64,-6.81,-54.60,-3.90,-26.10,23.6
2026/05/04 21:56:40.39,IMU,767.58,-70.31,-694.82,-11.39,-2.28,0.80,-55.80,-4.80,-24.15,23.4
2026/05/04 21:56:40.49,IMU,864.75,-18.55,-560.55,-2.02,-23.13,4.95,-54.45,-3.30,-27.00,23.5
2026/05/04 21:56:40.59,IMU,771.48,-64.94,-623.54,-1.09,-4.82,9.47,-53.25,-3.75,-28.80,23.7
2026/05/04 21:56:40.69,IMU,809.57,-22.46,-539.55,-5.12,4.96,1.27,-54.00,-4.05,-27.30,23.8
2026/05/04 21:56:40.79,IMU,805.18,-16.60,-572.75,0.08,16.15,-2.71,-54.75,-3.00,-27.30,23.5
2026/05/04 21:56:40.89,IMU,835.94,-27.34,-618.16,-0.21,13.70,0.28,-53.40,-4.35,-27.60,23.4
2026/05/04 21:56:40.99,IMU,816.89,-2.44,-590.33,5.82,4.63,-1.74,-52.80,-3.15,-27.60,24.0
2026/05/04 21:56:41.09,IMU,782.71,-59.08,-618.16,-2.38,22.04,-9.41,-54.75,-3.75,-27.75,23.6
2026/05/04 21:56:41.19,IMU,757.32,-67.38,-624.51,2.99,1.63,-0.27,-53.70,-3.00,-27.30,23.8
2026/05/04 21:56:41.29,IMU,807.13,-41.50,-635.74,0.56,10.91,-1.67,-53.40,-4.35,-28.20,23.6
2026/05/04 21:56:41.39,IMU,813.48,-54.20,-615.23,3.35,-6.57,0.27,-54.45,-4.05,-27.00,23.6
2026/05/04 21:56:41.50,IMU,801.76,-46.88,-603.03,-4.60,-14.64,5.36,-54.00,-3.30,-27.00,23.7
2026/05/04 21:56:41.60,IMU,869.14,-90.82,-568.36,5.69,-15.95,5.02,-54.60,-4.65,-27.60,23.5
2026/05/04 21:56:41.70,IMU,823.24,-73.24,-586.43,5.76,-11.50,8.57,-53.40,-4.65,-28.65,23.6
2026/05/04 21:56:41.81,IMU,804.20,-101.07,-587.40,20.12,-9.34,15.19,-51.75,-5.25,-28.05,23.6
2026/05/04 21:56:41.91,IMU,746.09,-155.76,-695.31,3.96,-17.32,20.87,-49.95,-7.20,-28.80,23.3
2026/05/04 21:56:42.01,IMU,669.92,-164.55,-710.45,-0.40,-2.73,8.21,-48.90,-7.95,-29.55,23.4
2026/05/04 21:56:42.12,IMU,738.28,-156.74,-629.88,1.19,-40.07,5.89,-49.80,-8.85,-28.65,23.1
2026/05/04 21:56:42.22,IMU,728.03,-208.50,-770.02,20.19,30.52,-11.16,-48.00,-10.05,-27.90,23.3
2026/05/04 21:56:42.32,IMU,654.79,-186.04,-760.74,0.84,25.48,-2.21,-49.35,-7.65,-28.20,23.5
2026/05/04 21:56:42.42,IMU,775.88,-183.59,-625.49,5.15,8.85,-2.40,-52.80,-11.55,-25.80,23.5
2026/05/04 21:56:42.52,IMU,747.56,-155.27,-659.67,9.08,-2.65,3.21,-48.75,-8.85,-29.40,23.3
2026/05/04 21:56:42.62,IMU,720.21,-180.18,-677.73,9.09,-22.60,14.97,-49.65,-9.00,-28.50,23.4
2026/05/04 21:56:42.72,IMU,679.20,-190.92,-769.53,-1.70,-25.40,20.40,-47.55,-10.80,-29.40,23.6
2026/05/04 21:56:42.82,IMU,659.18,-266.11,-717.29,-7.07,-0.50,2.46,-47.25,-10.80,-28.20,23.3
2026/05/04 21:56:42.92,IMU,681.64,-226.07,-709.47,-5.27,11.24,-7.05,-47.40,-10.50,-27.75,23.5
2026/05/04 21:56:43.02,IMU,752.44,-172.36,-638.18,-6.41,15.99,-5.76,-48.00,-8.40,-28.65,23.3
2026/05/04 21:56:43.12,IMU,730.47,-208.01,-665.53,-0.79,-6.59,4.66,-48.45,-8.25,-29.55,23.1
2026/05/04 21:56:43.22,IMU,709.47,-185.55,-675.78,-3.49,-1.15,0.18,-48.00,-10.35,-29.40,23.3
2026/05/04 21:56:43.32,IMU,716.80,-241.21,-736.33,-2.94,-12.25,-2.53,-47.40,-9.45,-29.85,23.4
2026/05/04 21:56:43.42,IMU,742.68,-185.55,-711.43,6.27,-16.11,4.64,-49.20,-7.95,-29.85,23.6
2026/05/04 21:56:43.55,IMU,695.80,-189.94,-761.72,-0.79,1.27,-0.66,-48.00,-9.60,-30.00,23.4
2026/05/04 21:56:43.65,IMU,689.45,-207.03,-649.90,2.40,14.67,-5.43,-48.30,-8.40,-28.95,23.3
2026/05/04 21:56:43.75,IMU,691.89,-228.03,-719.24,1.43,-3.72,-0.87,-49.05,-9.60,-29.40,23.6
2026/05/04 21:56:43.85,IMU,698.24,-211.91,-744.63,-2.09,2.62,-8.05,-53.10,-12.30,-24.60,23.6
2026/05/04 21:56:43.95,IMU,715.33,-201.66,-673.83,7.78,-1.22,-0.54,-48.30,-9.60,-29.70,23.5
2026/05/04 21:56:44.05,IMU,709.96,-188.96,-665.53,0.37,3.77,-0.31,-46.80,-10.05,-28.95,23.6
2026/05/04 21:56:44.15,IMU,723.63,-201.17,-708.50,-10.95,2.89,6.41,-47.55,-9.60,-28.65,23.3
2026/05/04 21:56:44.25,IMU,686.52,-224.12,-666.99,-1.15,8.44,2.36,-47.10,-8.70,-29.10,23.1
2026/05/04 21:56:44.35,IMU,732.91,-212.40,-702.15,4.35,3.82,-4.98,-48.45,-9.45,-29.55,23.5
2026/05/04 21:56:44.45,IMU,698.24,-219.24,-708.50,-2.06,-9.74,2.73,-47.40,-8.70,-28.80,23.6
2026/05/04 21:56:44.55,IMU,684.57,-235.84,-775.88,-0.66,-8.31,3.62,-47.25,-8.10,-28.20,23.3
2026/05/04 21:56:44.65,IMU,681.15,-229.00,-717.29,0.65,1.09,-1.67,-48.75,-11.10,-28.65,23.4
2026/05/04 21:56:44.75,IMU,724.12,-197.75,-696.29,-1.34,4.23,1.24,-51.00,-11.70,-26.70,23.4
2026/05/04 21:56:44.85,IMU,688.48,-213.87,-713.87,3.70,-4.31,0.60,-47.40,-10.50,-28.05,23.6
2026/05/04 21:56:44.97,IMU,702.64,-222.66,-708.50,-3.82,1.59,-1.55,-48.45,-9.00,-28.80,23.4
2026/05/04 21:56:45.07,IMU,701.17,-242.68,-718.26,-0.34,-3.90,4.09,-48.00,-10.05,-28.95,23.4
2026/05/04 21:56:45.17,IMU,693.36,-203.13,-722.66,2.04,-6.23,6.95,-47.55,-10.35,-29.40,23.4
2026/05/04 21:56:45.27,IMU,716.80,-236.82,-703.61,0.05,-10.98,4.26,-47.70,-10.50,-28.05,23.3
2026/05/04 21:56:45.37,IMU,700.68,-201.17,-722.17,-0.08,-10.27,3.76,-48.45,-9.45,-30.30,23.3
2026/05/04 21:56:45.47,IMU,719.24,-204.59,-659.18,0.34,-6.30,-0.13,-48.45,-9.75,-28.50,23.3
2026/05/04 21:56:45.57,IMU,664.55,-255.86,-762.70,3.62,-4.12,3.76,-50.10,-11.55,-24.60,23.2
2026/05/04 21:56:45.67,IMU,715.82,-203.61,-731.93,-0.07,5.24,2.94,-47.70,-10.20,-29.55,23.6
2026/05/04 21:56:45.77,IMU,704.59,-241.70,-690.92,-2.95,9.37,4.08,-50.10,-11.85,-26.10,23.2
2026/05/04 21:56:45.87,IMU,716.31,-204.59,-733.89,-1.51,2.15,-3.92,-48.75,-10.35,-27.60,23.5
2026/05/04 21:56:45.97,IMU,699.22,-235.35,-709.96,-1.98,-0.66,1.82,-48.90,-8.70,-28.05,23.3
2026/05/04 21:56:46.09,IMU,703.61,-209.96,-674.80,2.79,13.16,-3.60,-48.45,-10.50,-27.30,23.4
2026/05/04 21:56:46.19,IMU,740.23,-214.84,-650.88,1.94,8.04,-0.89,-48.90,-9.75,-28.05,23.3
2026/05/04 21:56:46.29,IMU,725.10,-196.29,-696.29,0.30,-3.03,2.63,-48.30,-10.80,-27.15,23.3
2026/05/04 21:56:46.40,IMU,679.20,-264.65,-583.50,2.63,-9.98,7.60,-48.45,-9.45,-27.75,23.1
2026/05/04 21:56:46.50,IMU,720.70,-214.84,-695.80,4.02,-6.14,2.14,-48.00,-9.30,-29.40,23.4
2026/05/04 21:56:46.60,IMU,710.45,-223.63,-664.55,0.25,5.61,-1.36,-48.90,-10.50,-28.05,23.3
2026/05/04 21:56:46.70,IMU,711.91,-232.42,-709.47,-0.92,-7.46,2.90,-47.55,-9.60,-29.70,22.9
2026/05/04 21:56:46.80,IMU,706.54,-214.36,-698.24,2.11,1.05,0.19,-48.90,-11.25,-29.55,23.5
2026/05/04 21:56:46.90,IMU,693.36,-188.48,-689.45,4.02,-5.24,-0.28,-48.90,-9.45,-28.50,23.3
2026/05/04 21:56:47.00,IMU,702.15,-240.72,-726.56,-0.81,-1.98,2.24,-50.10,-11.10,-24.30,23.3
2026/05/04 21:56:47.10,IMU,717.29,-228.03,-686.04,0.80,-0.85,4.73,-47.40,-9.75,-29.55,23.6
2026/05/04 21:56:47.20,IMU,691.89,-265.63,-705.08,5.46,-4.32,0.97,-47.40,-10.50,-27.30,23.1
2026/05/04 21:56:47.30,IMU,697.75,-230.47,-723.63,2.65,18.49,-8.18,-48.15,-10.50,-29.10,23.3
2026/05/04 21:56:47.40,IMU,725.10,-205.08,-636.23,1.31,18.34,-0.60,-47.70,-10.50,-27.75,23.4
2026/05/04 21:56:47.50,IMU,716.80,-249.02,-680.18,-3.44,-6.89,4.40,-47.10,-9.75,-28.05,23.5
2026/05/04 21:56:47.60,IMU,685.06,-240.23,-697.75,-2.27,-1.56,-0.08,-47.55,-9.30,-27.90,23.1
2026/05/04 21:56:47.70,IMU,689.94,-223.14,-695.80,0.53,-3.25,0.74,-48.15,-10.50,-29.10,23.4
2026/05/04 21:56:47.80,IMU,675.29,-214.84,-701.17,0.56,-0.20,0.40,-48.90,-11.25,-27.00,23.6
2026/05/04 21:56:47.90,IMU,709.96,-221.19,-710.94,3.20,7.53,-0.42,-47.25,-10.05,-28.20,23.5
2026/05/04 21:56:48.00,IMU,693.85,-253.91,-744.14,4.65,5.25,-2.59,-47.40,-10.95,-28.50,23.3
2026/05/04 21:56:48.13,IMU,659.67,-262.70,-702.15,2.44,2.52,-3.21,-48.15,-9.45,-29.10,23.6
2026/05/04 21:56:48.23,IMU,717.77,-221.19,-736.33,3.47,8.56,-3.66,-47.10,-9.75,-29.55,23.5
2026/05/04 21:56:48.33,IMU,735.84,-203.13,-644.53,-2.43,27.50,-3.73,-47.70,-10.20,-28.80,23.6
2026/05/04 21:56:48.43,IMU,702.15,-231.45,-675.29,-0.55,-10.15,5.31,-47.55,-11.10,-26.85,23.4
2026/05/04 21:56:48.53,IMU,689.45,-208.50,-715.82,0.06,-9.08,2.50,-47.10,-9.75,-27.30,23.3
2026/05/04 21:56:48.63,IMU,673.83,-246.58,-758.79,-2.73,-3.27,0.57,-47.70,-9.75,-28.80,23.4
2026/05/04 21:56:48.73,IMU,662.60,-263.67,-773.44,1.36,-6.32,2.13,-47.55,-10.05,-28.95,23.1
2026/05/04 21:56:48.83,IMU,667.97,-239.75,-705.08,2.53,-5.30,-3.11,-49.65,-10.95,-25.95,23.5
2026/05/04 21:56:48.93,IMU,689.45,-216.31,-714.84,1.37,-0.27,-0.66,-45.60,-10.20,-29.55,23.4
2026/05/04 21:56:49.03,IMU,695.31,-231.93,-695.80,2.40,4.57,-2.63,-47.55,-10.80,-28.20,23.3
2026/05/04 21:56:49.13,IMU,687.50,-259.77,-728.03,1.43,-3.50,-1.18,-47.55,-9.60,-27.90,23.3
2026/05/04 21:56:49.23,IMU,730.96,-222.66,-713.87,-3.67,3.09,-4.63,-49.20,-10.95,-28.50,23.4
2026/05/04 21:56:49.34,IMU,679.69,-214.36,-711.91,4.03,-1.44,4.48,-47.55,-11.10,-27.90,23.1
2026/05/04 21:56:49.44,IMU,674.32,-230.96,-729.98,4.19,-13.12,2.45,-47.10,-9.45,-28.80,23.4
2026/05/04 21:56:49.56,IMU,681.15,-207.52,-768.07,-2.06,2.10,-5.67,-46.65,-9.75,-27.75,23.6
2026/05/04 21:56:49.66,IMU,693.36,-231.45,-674.80,-2.41,16.94,-5.20,-48.30,-8.85,-29.40,23.4
2026/05/04 21:56:49.76,IMU,688.48,-211.43,-676.76,-2.61,-4.42,-9.68,-48.30,-8.40,-28.20,23.4
2026/05/04 21:56:49.86,IMU,656.25,-244.14,-773.44,-7.78,2.00,-8.65,-50.70,-10.95,-26.25,23.3
2026/05/04 21:56:49.96,IMU,673.34,-176.27,-771.97,-10.18,-9.91,-5.51,-48.75,-8.85,-29.40,23.1
2026/05/04 21:56:50.06,IMU,721.68,-155.27,-616.70,-6.31,-63.18,4.33,-50.40,-8.70,-30.30,23.1
2026/05/04 21:56:50.16,IMU,775.88,-134.77,-513.18,-9.08,-56.37,6.94,-51.60,-11.85,-25.80,23.3
2026/05/04 21:56:50.26,IMU,768.55,-71.78,-537.11,-0.73,37.97,-11.15,-49.20,-7.20,-32.10,23.3
2026/05/04 21:56:50.36,IMU,716.80,-87.40,-772.95,24.60,31.60,-7.69,-47.70,-5.25,-31.65,23.2
2026/05/04 21:56:50.46,IMU,624.02,-165.53,-829.59,20.72,-13.79,7.82,-48.75,-6.60,-31.80,23.4
2026/05/04 21:56:50.56,IMU,595.70,-224.61,-820.80,13.08,-4.35,7.59,-47.40,-8.25,-31.35,23.3
2026/05/04 21:56:50.66,IMU,493.65,-226.56,-702.15,4.66,5.57,-13.51,-48.15,-9.75,-31.35,23.3
2026/05/04 21:56:50.76,IMU,652.83,-190.92,-757.81,-3.08,4.99,-0.24,-49.65,-9.75,-29.85,23.3
2026/05/04 21:56:50.86,IMU,627.93,-220.21,-751.95,8.25,-7.06,5.99,-52.35,-11.55,-26.85,23.4
2026/05/04 21:56:50.96,IMU,630.86,-233.89,-712.40,3.31,-0.20,6.01,-46.50,-10.80,-27.90,23.1
2026/05/04 21:56:51.06,IMU,614.75,-247.07,-762.21,1.75,-0.08,1.97,-48.30,-8.40,-30.45,23.1
2026/05/04 21:56:51.16,IMU,624.02,-252.44,-769.53,2.08,10.61,-5.05,-48.30,-9.30,-28.20,23.3
2026/05/04 21:56:51.27,IMU,630.86,-223.63,-744.14,-3.47,9.93,-4.96,-48.90,-9.00,-27.75,23.2
2026/05/04 21:56:51.36,IMU,638.18,-246.09,-734.38,1.22,4.87,-0.20,-49.80,-10.05,-28.95,23.4
2026/05/04 21:56:51.46,IMU,626.95,-235.35,-739.26,2.85,-2.97,3.15,-47.55,-8.85,-30.00,23.6
2026/05/04 21:56:51.57,IMU,622.56,-227.54,-774.41,-2.01,26.95,-2.60,-46.65,-10.50,-29.85,23.4
2026/05/04 21:56:51.67,IMU,616.70,-245.12,-744.63,3.97,28.15,-7.17,-48.15,-10.20,-28.50,22.9
2026/05/04 21:56:51.77,IMU,602.54,-256.84,-821.78,1.17,-7.13,-3.33,-49.20,-10.50,-30.30,23.2
2026/05/04 21:56:51.88,IMU,655.27,-208.50,-802.25,-6.50,3.13,9.43,-51.60,-10.80,-24.30,23.3
2026/05/04 21:56:51.98,IMU,650.88,-245.61,-783.20,4.56,12.07,-4.45,-47.40,-10.20,-29.10,23.2
2026/05/04 21:56:52.08,IMU,634.77,-231.93,-716.31,2.37,-5.68,8.10,-48.45,-8.25,-28.50,23.4
2026/05/04 21:56:52.18,IMU,628.42,-238.28,-756.35,0.53,-16.81,5.62,-52.05,-12.60,-25.35,23.4
2026/05/04 21:56:52.28,IMU,613.28,-226.07,-740.23,1.40,0.20,-0.16,-47.25,-10.35,-29.40,23.4
2026/05/04 21:56:52.38,IMU,601.56,-242.19,-794.92,6.97,-28.56,-7.63,-47.25,-9.30,-31.50,23.3
2026/05/04 21:56:52.48,IMU,583.98,-258.79,-790.04,3.24,3.54,3.13,-45.75,-9.60,-30.75,23.5
2026/05/04 21:56:52.58,IMU,548.83,-259.28,-784.18,0.86,-11.66,6.21,-46.35,-10.50,-32.40,23.2
2026/05/04 21:56:52.70,IMU,579.10,-249.51,-852.05,-2.95,3.93,-7.50,-45.60,-9.75,-31.35,23.5
2026/05/04 21:56:52.80,IMU,561.04,-220.70,-802.73,10.03,-5.27,-10.82,-45.90,-8.70,-30.90,23.1
2026/05/04 21:56:52.90,IMU,575.20,-242.68,-801.27,10.68,12.85,-1.40,-50.70,-12.15,-25.50,23.4
2026/05/04 21:56:53.01,IMU,558.11,-309.57,-781.25,7.08,2.38,-4.66,-45.90,-8.70,-30.30,23.3
2026/05/04 21:56:53.10,IMU,544.92,-295.41,-784.67,10.68,-2.12,0.01,-46.05,-10.35,-30.00,23.3
2026/05/04 21:56:53.20,IMU,532.71,-303.71,-812.50,-4.11,-18.59,-2.74,-46.50,-10.80,-30.75,23.3
2026/05/04 21:56:53.33,IMU,565.43,-276.37,-816.89,1.27,6.02,0.66,-48.90,-13.65,-25.50,23.3
2026/05/04 21:56:53.43,IMU,564.94,-261.23,-750.49,2.73,-5.96,0.65,-47.70,-9.45,-31.35,23.3
2026/05/04 21:56:53.53,IMU,552.73,-270.51,-797.85,-1.84,7.77,-6.40,-46.35,-10.95,-31.65,23.1
2026/05/04 21:56:53.63,IMU,567.38,-272.95,-830.08,1.48,2.21,2.39,-46.80,-10.05,-29.70,23.3
2026/05/04 21:56:53.73,IMU,596.19,-255.86,-714.36,5.03,9.85,2.15,-48.15,-9.45,-28.50,23.3
2026/05/04 21:56:53.83,IMU,590.82,-271.48,-771.00,2.40,10.94,6.46,-47.55,-10.35,-28.95,23.3
2026/05/04 21:56:53.93,IMU,538.57,-261.23,-785.16,-6.18,-21.15,-2.50,-49.35,-10.80,-28.65,23.3
2026/05/04 21:56:54.03,IMU,555.66,-273.93,-815.92,-2.32,-6.05,4.40,-46.50,-11.10,-30.75,23.4
2026/05/04 21:56:54.16,IMU,547.36,-283.69,-757.81,2.44,5.37,-6.24,-47.10,-10.50,-32.10,23.4
2026/05/04 21:56:54.26,IMU,531.25,-287.11,-832.03,13.47,-4.48,-3.17,-45.30,-10.80,-30.45,23.4
2026/05/04 21:56:54.36,IMU,512.70,-279.79,-807.62,-2.17,-11.08,1.25,-47.40,-9.75,-29.85,23.5
2026/05/04 21:56:54.46,IMU,524.41,-249.02,-847.66,5.82,8.19,-13.47,-45.30,-10.05,-30.75,23.5
2026/05/04 21:56:54.56,IMU,502.44,-234.38,-825.68,-8.72,2.74,-6.76,-46.80,-8.40,-31.20,23.3
2026/05/04 21:56:54.66,IMU,572.27,-258.79,-790.53,7.34,-9.40,0.77,-46.50,-8.85,-31.50,23.5
2026/05/04 21:56:54.76,IMU,565.43,-255.86,-773.44,-0.41,0.24,2.23,-50.10,-10.80,-27.90,23.2
2026/05/04 21:56:54.86,IMU,540.04,-230.47,-830.57,1.73,2.15,-3.15,-48.15,-9.75,-31.35,23.3
2026/05/04 21:56:54.96,IMU,504.39,-281.25,-886.23,10.60,0.89,-6.60,-46.35,-9.45,-32.10,23.3
2026/05/04 21:56:55.06,IMU,457.52,-288.57,-876.46,21.44,-15.82,-2.27,-47.25,-9.60,-30.00,23.3
2026/05/04 21:56:55.16,IMU,496.58,-266.11,-763.18,14.73,13.77,-3.66,-47.25,-8.85,-31.50,23.3
2026/05/04 21:56:55.26,IMU,496.09,-328.61,-749.51,13.19,-6.53,-9.11,-47.25,-9.60,-31.20,23.3
2026/05/04 21:56:55.37,IMU,429.20,-344.24,-907.71,24.70,-25.14,-8.72,-46.05,-10.05,-31.20,23.1
2026/05/04 21:56:55.47,IMU,395.51,-351.56,-871.58,66.27,-25.77,-14.44,-45.60,-10.50,-29.85,23.1
2026/05/04 21:56:55.57,IMU,390.63,-402.83,-855.47,14.04,-6.81,-8.12,-46.80,-10.80,-29.40,23.3
2026/05/04 21:56:55.67,IMU,442.87,-368.16,-830.57,-4.21,5.49,-1.80,-47.25,-12.30,-28.65,23.2
2026/05/04 21:56:55.77,IMU,383.30,-395.02,-810.55,-8.27,12.18,-3.45,-48.30,-10.80,-29.40,23.3
2026/05/04 21:56:55.88,IMU,414.55,-399.41,-848.14,2.44,3.05,-3.47,-47.55,-11.55,-28.20,23.3
2026/05/04 21:56:55.98,IMU,382.32,-420.41,-825.68,-7.01,13.93,-4.58,-46.65,-10.50,-28.50,23.3
2026/05/04 21:56:56.08,IMU,427.25,-391.60,-834.96,-1.96,7.42,-3.63,-46.65,-11.70,-28.80,23.3
2026/05/04 21:56:56.18,IMU,401.86,-379.88,-829.10,4.27,-3.86,3.20,-48.00,-11.10,-28.65,23.1
2026/05/04 21:56:56.28,IMU,384.28,-404.30,-835.94,5.27,-5.88,-4.66,-47.55,-11.10,-28.95,23.1
2026/05/04 21:56:56.38,IMU,389.65,-401.86,-828.61,5.00,7.59,-0.50,-46.05,-10.80,-28.20,23.3
2026/05/04 21:56:56.48,IMU,395.51,-409.67,-822.75,-12.27,14.65,-1.47,-47.10,-10.95,-29.85,23.3
2026/05/04 21:56:56.58,IMU,427.25,-414.06,-833.98,8.19,-4.11,4.77,-46.05,-11.55,-27.60,23.1
2026/05/04 21:56:56.68,IMU,362.30,-507.81,-831.05,3.64,-5.60,6.13,-45.30,-11.10,-28.20,23.1
2026/05/04 21:56:56.78,IMU,344.73,-413.57,-827.15,2.21,-6.29,-4.44,-48.15,-13.20,-24.15,23.2
2026/05/04 21:56:56.88,IMU,279.79,-394.53,-863.77,39.09,-4.38,-10.02,-46.35,-12.90,-29.10,23.2
2026/05/04 21:56:56.98,IMU,347.66,-439.45,-1030.76,6.49,3.05,-9.96,-47.70,-13.95,-24.90,23.1
2026/05/04 21:56:57.08,IMU,194.82,-553.22,-989.26,57.43,-58.95,4.02,-45.60,-12.90,-28.05,23.2
2026/05/04 21:56:57.18,IMU,267.58,-544.43,-924.80,25.13,-31.89,8.97,-44.25,-14.10,-27.90,23.2
2026/05/04 21:56:57.30,IMU,229.00,-563.96,-862.79,23.07,-16.37,-6.07,-43.20,-15.30,-26.40,23.2
2026/05/04 21:56:57.40,IMU,246.58,-549.80,-878.42,-15.93,19.96,-8.98,-44.10,-13.65,-25.50,23.1
2026/05/04 21:56:57.50,IMU,282.71,-550.29,-849.61,12.21,-18.22,2.73,-43.50,-13.35,-26.10,23.1
2026/05/04 21:56:57.61,IMU,240.23,-550.29,-875.49,5.44,-13.44,2.30,-45.30,-14.10,-27.60,23.2
2026/05/04 21:56:57.71,IMU,285.64,-545.90,-825.68,-1.41,2.15,-4.37,-44.10,-12.90,-27.00,23.0
2026/05/04 21:56:57.81,IMU,314.45,-476.56,-793.95,-19.05,10.25,2.67,-44.85,-13.65,-25.95,23.4
2026/05/04 21:56:57.91,IMU,266.11,-528.32,-823.24,-2.05,0.58,2.13,-44.10,-13.65,-26.70,23.3
2026/05/04 21:56:58.01,IMU,223.14,-550.78,-918.95,21.51,-31.77,-2.59,-44.85,-13.65,-28.05,23.2
2026/05/04 21:56:58.11,IMU,223.63,-556.64,-852.05,-6.02,-9.41,-1.61,-44.85,-13.95,-26.25,23.1
2026/05/04 21:56:58.21,IMU,237.79,-541.99,-913.57,9.60,-19.96,-1.93,-46.80,-15.30,-24.30,23.1
2026/05/04 21:56:58.31,IMU,265.63,-555.18,-825.20,9.51,-34.95,8.10,-46.50,-13.35,-26.85,23.0
2026/05/04 21:56:58.41,IMU,224.61,-534.67,-868.65,-0.39,-15.54,-0.24,-45.30,-12.60,-26.85,22.8
2026/05/04 21:56:58.51,IMU,262.21,-501.95,-810.55,-0.86,-10.78,4.15,-45.30,-13.35,-27.15,23.3
2026/05/04 21:56:58.61,IMU,283.20,-509.28,-842.77,0.34,2.83,-2.15,-45.00,-13.35,-26.40,23.1
2026/05/04 21:56:58.75,IMU,263.67,-509.28,-811.04,1.75,-1.87,4.97,-44.25,-14.55,-27.15,23.1
2026/05/04 21:56:58.85,IMU,234.86,-517.09,-838.38,5.66,-12.01,11.02,-44.10,-14.40,-27.00,23.3
2026/05/04 21:56:58.95,IMU,229.00,-535.64,-816.89,-3.44,2.95,3.39,-44.25,-13.35,-27.15,23.2
2026/05/04 21:56:59.05,IMU,200.68,-545.90,-823.24,5.98,2.22,-6.85,-44.25,-13.80,-27.60,23.1
2026/05/04 21:56:59.15,IMU,236.82,-555.18,-824.71,1.22,-17.70,3.73,-44.10,-14.40,-27.30,23.1
2026/05/04 21:56:59.25,IMU,227.05,-569.82,-838.38,12.78,-10.58,-2.55,-44.10,-13.95,-26.70,23.4
2026/05/04 21:56:59.35,IMU,285.64,-554.69,-768.55,11.21,-1.29,4.31,-43.35,-13.65,-25.80,23.2
2026/05/04 21:56:59.45,IMU,162.60,-674.80,-762.70,52.87,-18.97,-7.04,-42.75,-14.10,-25.80,23.1
2026/05/04 21:56:59.55,IMU,224.12,-643.55,-834.47,3.20,-38.89,19.16,-44.25,-15.90,-24.45,23.1
2026/05/04 21:56:59.65,IMU,110.35,-710.45,-808.11,10.77,-2.84,3.80,-42.30,-15.45,-25.50,22.9
2026/05/04 21:56:59.75,IMU,161.62,-629.88,-746.58,-3.37,11.51,-1.24,-42.45,-16.05,-24.30,23.1
2026/05/04 21:56:59.85,IMU,166.02,-666.02,-748.05,-2.15,5.19,6.44,-41.70,-16.80,-24.60,22.9
2026/05/04 21:56:59.95,IMU,179.20,-657.23,-742.68,2.41,5.25,-1.13,-42.75,-14.85,-25.05,22.9
2026/05/04 21:57:00.05,IMU,158.69,-663.09,-785.64,-2.36,6.86,5.77,-42.45,-16.50,-24.00,23.1
2026/05/04 21:57:00.18,IMU,171.39,-663.09,-781.74,2.16,4.83,3.47,-41.10,-15.15,-24.90,23.3
2026/05/04 21:57:00.28,IMU,184.57,-647.95,-766.11,7.31,9.10,3.26,-40.20,-15.30,-23.25,23.2
2026/05/04 21:57:00.38,IMU,146.00,-693.85,-748.54,1.35,6.31,4.78,-41.10,-17.70,-22.65,23.2
2026/05/04 21:57:00.48,IMU,160.16,-689.45,-761.72,1.25,7.10,7.94,-40.80,-16.65,-22.35,23.3
2026/05/04 21:57:00.58,IMU,182.13,-687.50,-750.00,-0.58,2.05,9.01,-41.55,-16.95,-21.90,23.1
2026/05/04 21:57:00.68,IMU,154.79,-681.64,-755.86,-4.82,-3.04,6.78,-41.10,-17.40,-23.10,23.2
2026/05/04 21:57:00.78,IMU,121.58,-714.36,-744.14,-1.98,7.63,4.53,-40.95,-16.50,-20.70,23.3
2026/05/04 21:57:00.88,IMU,146.00,-699.71,-791.02,-1.89,-7.30,11.09,-38.70,-17.55,-23.25,22.9
2026/05/04 21:57:00.98,IMU,136.23,-723.14,-792.48,5.05,-1.10,2.37,-40.80,-19.35,-22.35,23.2
2026/05/04 21:57:01.08,IMU,128.42,-706.05,-751.46,-2.45,-5.82,0.99,-39.45,-18.00,-23.55,23.1
2026/05/04 21:57:01.18,IMU,154.30,-670.41,-756.35,0.11,-6.14,2.73,-40.35,-18.15,-23.40,23.0
2026/05/04 21:57:01.30,IMU,199.71,-672.85,-774.90,0.97,-0.08,5.38,-40.80,-18.60,-22.35,22.9
2026/05/04 21:57:01.40,IMU,187.50,-661.62,-690.92,7.79,-3.26,8.84,-40.05,-17.70,-22.65,23.1
2026/05/04 21:57:01.50,IMU,129.88,-684.57,-744.14,2.76,2.35,7.15,-38.55,-18.90,-22.65,23.1
2026/05/04 21:57:01.61,IMU,129.39,-687.50,-744.14,-3.30,7.58,4.99,-37.80,-19.65,-22.65,23.2
2026/05/04 21:57:01.71,IMU,125.49,-708.01,-729.49,-1.73,8.15,3.93,-37.80,-19.35,-23.10,23.1
2026/05/04 21:57:01.81,IMU,135.74,-680.66,-726.56,7.92,1.17,1.01,-37.65,-19.05,-21.75,23.2
2026/05/04 21:57:01.91,IMU,116.70,-684.57,-728.52,-1.95,4.74,3.81,-37.95,-19.05,-21.45,23.3
2026/05/04 21:57:02.01,IMU,152.34,-666.99,-695.80,2.68,4.72,2.71,-37.95,-19.50,-20.25,23.1
2026/05/04 21:57:02.11,IMU,137.21,-678.22,-736.33,1.42,-1.47,9.17,-36.75,-19.65,-21.15,23.1
2026/05/04 21:57:02.21,IMU,120.61,-719.73,-683.11,2.53,-4.26,3.53,-37.20,-18.75,-21.45,23.3
2026/05/04 21:57:02.31,IMU,98.14,-709.96,-750.00,2.69,-8.91,3.96,-35.55,-19.65,-21.15,23.1
2026/05/04 21:57:02.41,IMU,73.73,-732.42,-715.82,0.05,-6.60,2.76,-36.30,-19.65,-21.15,23.3
2026/05/04 21:57:02.51,IMU,101.07,-705.57,-750.98,6.61,-7.56,-2.47,-36.00,-19.65,-21.60,23.3
2026/05/04 21:57:02.61,IMU,108.89,-687.01,-745.12,3.94,-5.31,-8.18,-36.00,-19.65,-21.60,23.3
2026/05/04 21:57:02.75,IMU,133.30,-687.99,-700.20,3.73,2.02,-3.47,-37.05,-18.90,-21.90,23.3
2026/05/04 21:57:02.84,IMU,134.28,-710.94,-692.87,-11.78,-11.53,-5.25,-37.50,-19.65,-22.35,23.3
2026/05/04 21:57:02.94,IMU,39.55,-676.76,-736.82,13.24,-46.99,-2.94,-34.65,-18.00,-24.60,23.0
2026/05/04 21:57:03.05,IMU,-43.46,-770.02,-713.38,17.06,-22.97,8.08,-39.15,-23.70,-18.45,23.2
2026/05/04 21:57:03.15,IMU,-34.67,-671.88,-814.45,-18.29,33.81,-5.24,-34.35,-19.05,-22.80,23.2
2026/05/04 21:57:03.25,IMU,-51.27,-752.44,-769.53,-19.39,30.47,9.08,-34.20,-20.40,-23.70,23.3
2026/05/04 21:57:03.35,IMU,-39.55,-704.10,-722.17,-12.13,14.63,1.34,-34.65,-19.80,-24.30,23.3
2026/05/04 21:57:03.45,IMU,0.00,-721.19,-712.89,6.41,17.33,3.21,-34.65,-18.75,-23.55,23.3
2026/05/04 21:57:03.55,IMU,26.86,-720.70,-724.12,5.97,4.79,-9.76,-34.65,-19.80,-25.05,23.3
2026/05/04 21:57:03.65,IMU,74.22,-674.80,-700.68,4.86,0.24,-9.90,-35.85,-19.80,-23.25,23.2
2026/05/04 21:57:03.75,IMU,60.06,-696.29,-738.28,0.02,1.81,-10.27,-36.75,-18.60,-23.10,23.2
2026/05/04 21:57:03.85,IMU,40.04,-687.50,-761.72,-4.17,-5.14,-27.65,-36.30,-20.10,-23.10,23.3
2026/05/04 21:57:03.95,IMU,106.45,-705.08,-872.07,-37.38,41.89,-16.14,-37.80,-17.70,-24.90,23.3
2026/05/04 21:57:04.05,IMU,216.31,-592.77,-774.90,-76.34,78.15,-8.79,-39.30,-15.45,-24.90,23.4
2026/05/04 21:57:04.17,IMU,459.96,-356.45,-745.61,-150.03,149.57,-11.38,-45.15,-11.70,-28.05,23.4
2026/05/04 21:57:04.27,IMU,755.37,-72.27,-623.05,-124.35,93.84,27.40,-49.35,-7.35,-29.40,23.3
2026/05/04 21:57:04.37,IMU,755.37,2.44,-721.68,-28.69,20.09,2.18,-50.85,-4.35,-33.00,23.3
2026/05/04 21:57:04.47,IMU,784.67,-16.60,-576.66,14.60,6.48,-13.81,-51.30,-3.60,-32.55,23.4
2026/05/04 21:57:04.57,IMU,778.32,-48.83,-662.60,8.96,41.80,-15.34,-51.75,-4.05,-31.35,23.3
2026/05/04 21:57:04.67,IMU,791.99,-45.41,-608.89,-49.51,44.60,14.02,-52.95,-4.50,-29.10,23.3
2026/05/04 21:57:04.77,IMU,838.87,-5.37,-517.58,-75.30,104.46,39.82,-57.30,-2.55,-25.50,23.1
2026/05/04 21:57:04.87,IMU,906.74,68.85,-362.79,2.74,42.34,-4.35,-57.00,-0.75,-25.95,23.1
2026/05/04 21:57:04.97,IMU,946.78,46.39,-396.00,13.74,27.44,-0.08,-56.25,-2.55,-24.90,23.2
2026/05/04 21:57:05.07,IMU,908.20,-15.63,-388.18,-28.45,42.32,-6.84,-56.25,-1.80,-24.45,23.6
2026/05/04 21:57:05.17,IMU,920.90,-21.97,-416.50,3.24,11.44,-9.11,-55.50,-1.80,-23.40,23.1
2026/05/04 21:57:05.27,IMU,957.03,54.69,-351.07,-30.63,48.52,-6.23,-54.90,-0.90,-24.30,23.1
2026/05/04 21:57:05.37,IMU,945.31,34.67,-308.11,-3.15,-43.34,0.45,-56.55,-2.55,-25.20,23.1
2026/05/04 21:57:05.47,IMU,875.98,23.93,-572.27,8.02,30.63,-8.28,-55.35,-0.90,-27.15,23.1
2026/05/04 21:57:05.57,IMU,898.93,89.36,-388.18,8.63,-21.66,6.47,-55.50,-2.55,-25.20,23.3
2026/05/04 21:57:05.67,IMU,924.80,57.62,-389.16,-3.95,4.94,-2.32,-55.65,-1.65,-25.80,23.3
2026/05/04 21:57:05.77,IMU,916.99,33.69,-353.52,-2.73,-3.75,-1.05,-55.65,-1.95,-26.40,23.2
2026/05/04 21:57:05.88,IMU,953.61,47.85,-366.21,-1.69,-7.69,6.66,-56.10,-1.20,-26.10,23.5
2026/05/04 21:57:05.98,IMU,908.20,43.95,-354.49,-1.63,0.92,3.13,-56.25,-1.50,-26.70,23.3
2026/05/04 21:57:06.08,IMU,935.55,79.10,-342.77,2.63,10.89,1.18,-55.80,-3.00,-26.70,23.1
2026/05/04 21:57:06.18,IMU,929.20,35.64,-350.10,-2.56,-3.54,3.98,-54.45,-1.80,-25.20,23.3
2026/05/04 21:57:06.28,IMU,940.43,23.93,-381.35,-3.66,-16.18,2.12,-56.10,-1.65,-27.60,23.4
2026/05/04 21:57:06.38,IMU,930.66,-1.46,-351.56,-5.32,-12.00,6.57,-55.35,-3.15,-26.10,23.4
2026/05/04 21:57:06.48,IMU,936.04,3.42,-474.61,-7.50,-22.66,11.27,-53.70,-4.05,-27.75,23.1
2026/05/04 21:57:06.58,IMU,891.60,-9.77,-448.24,-1.57,-6.43,6.33,-54.00,-4.05,-28.05,23.3
2026/05/04 21:57:06.68,IMU,877.44,-36.13,-409.18,-3.21,-5.56,-0.31,-52.95,-2.25,-29.85,23.1
2026/05/04 21:57:06.79,IMU,896.00,0.98,-407.71,-0.90,6.16,0.31,-53.70,-3.75,-29.55,23.3
2026/05/04 21:57:06.89,IMU,918.95,-17.09,-429.20,2.38,0.40,-0.92,-52.95,-3.00,-30.30,23.1
2026/05/04 21:57:06.99,IMU,891.60,-11.72,-398.44,0.45,-1.86,6.32,-52.80,-3.60,-30.45,23.3
2026/05/04 21:57:07.09,IMU,888.18,-25.39,-408.69,-0.49,5.98,-0.73,-52.80,-3.90,-29.40,23.1
2026/05/04 21:57:07.19,IMU,893.55,14.65,-432.13,-1.68,-1.05,3.00,-54.45,-4.05,-27.30,23.2
2026/05/04 21:57:07.29,IMU,911.62,-21.48,-383.79,-2.76,1.40,1.06,-54.00,-3.00,-29.55,23.4
2026/05/04 21:57:07.39,IMU,920.41,-8.79,-417.97,0.84,5.23,-2.89,-51.30,-2.70,-31.50,23.1
2026/05/04 21:57:07.49,IMU,897.46,30.76,-415.53,-4.05,0.76,-3.11,-53.25,-3.30,-28.80,23.1
2026/05/04 21:57:07.59,IMU,894.04,6.84,-433.11,-1.07,6.95,-5.11,-53.85,-2.70,-30.00,23.2
2026/05/04 21:57:07.69,IMU,896.97,-19.53,-440.92,-0.17,6.00,-0.47,-54.15,-3.15,-31.50,23.3
2026/05/04 21:57:07.79,IMU,937.99,39.55,-374.02,4.37,-2.61,1.18,-54.60,-2.40,-28.95,23.1
2026/05/04 21:57:07.89,IMU,888.18,18.55,-468.26,-3.99,-12.05,1.61,-53.70,-2.55,-29.85,23.2
2026/05/04 21:57:07.99,IMU,813.96,-44.92,-541.99,-0.92,-13.85,5.55,-52.05,-2.70,-30.45,23.3
2026/05/04 21:57:08.09,IMU,893.07,-2.44,-490.23,2.65,-8.24,-5.31,-52.35,-1.95,-31.80,23.1
2026/05/04 21:57:08.20,IMU,903.81,4.39,-420.90,-3.64,0.54,5.69,-53.10,-3.15,-32.25,23.3
2026/05/04 21:57:08.30,IMU,921.39,-7.32,-454.10,-4.25,-4.32,6.18,-52.50,-4.50,-30.90,23.3
2026/05/04 21:57:08.40,IMU,870.61,-7.81,-437.50,-4.49,3.70,8.56,-51.60,-4.65,-31.80,23.3
2026/05/04 21:57:08.50,IMU,886.23,-27.83,-489.75,-2.59,-0.70,8.82,-51.75,-3.30,-31.65,23.1
2026/05/04 21:57:08.60,IMU,890.63,-29.30,-449.22,-0.95,-0.20,5.74,-52.05,-4.65,-32.25,23.2
2026/05/04 21:57:08.70,IMU,889.65,-23.93,-470.70,-3.42,1.15,4.76,-52.50,-4.80,-32.70,23.6
2026/05/04 21:57:08.80,IMU,876.46,-36.13,-466.31,-4.30,3.85,4.82,-51.75,-4.05,-31.65,23.4
2026/05/04 21:57:08.90,IMU,854.00,-54.20,-464.36,-6.60,-5.24,1.44,-51.45,-2.25,-32.10,23.3
2026/05/04 21:57:09.00,IMU,891.11,-15.14,-447.75,-4.13,-1.37,-0.40,-51.00,-4.05,-32.70,23.1
2026/05/04 21:57:09.10,IMU,883.30,-34.67,-463.38,-3.54,5.92,-6.66,-50.70,-4.80,-33.15,23.5
2026/05/04 21:57:09.20,IMU,896.48,-49.32,-470.21,-3.06,-0.62,5.11,-53.70,-6.00,-30.30,23.3
2026/05/04 21:57:09.30,IMU,879.39,-59.08,-445.80,-0.08,15.91,1.24,-50.10,-3.60,-32.55,22.9
2026/05/04 21:57:09.40,IMU,894.04,-56.15,-430.66,-2.79,5.22,6.55,-50.40,-3.75,-33.45,23.5
2026/05/04 21:57:09.50,IMU,902.83,-33.20,-443.36,-0.73,-5.36,4.05,-50.10,-4.65,-33.00,23.1
2026/05/04 21:57:09.63,IMU,899.90,-38.57,-470.21,-4.87,-5.03,3.82,-48.90,-3.75,-33.45,23.1
2026/05/04 21:57:09.73,IMU,886.72,-58.59,-425.29,-2.76,0.95,10.73,-49.65,-3.75,-33.15,23.1
2026/05/04 21:57:09.83,IMU,879.88,-50.29,-460.94,-1.92,1.31,-1.40,-49.80,-4.65,-33.00,23.2
2026/05/04 21:57:09.93,IMU,866.70,-70.31,-443.85,-1.00,6.73,-0.40,-49.80,-3.60,-34.35,23.1
2026/05/04 21:57:10.03,IMU,875.98,-65.92,-480.47,-4.21,0.03,-4.98,-48.90,-3.75,-33.45,23.3
2026/05/04 21:57:10.13,IMU,900.39,-62.99,-497.07,-2.24,-5.41,-4.85,-48.45,-5.25,-33.45,23.3
2026/05/04 21:57:10.23,IMU,877.44,-63.48,-478.52,-0.31,-1.15,3.02,-51.60,-6.60,-31.20,23.3
2026/05/04 21:57:10.33,IMU,871.09,-62.99,-484.38,1.04,-0.44,-1.67,-49.95,-4.80,-35.70,23.3
2026/05/04 21:57:10.43,IMU,901.86,-44.43,-479.00,0.17,-2.08,-1.49,-49.20,-3.75,-34.20,23.1
2026/05/04 21:57:10.54,IMU,895.51,-39.55,-465.33,0.47,1.53,-2.41,-48.75,-5.10,-34.80,23.3
2026/05/04 21:57:10.64,IMU,927.73,-45.41,-439.45,-0.65,-0.14,3.90,-49.20,-4.05,-33.15,23.1
2026/05/04 21:57:10.74,IMU,857.42,-77.15,-478.03,-5.60,-4.37,9.70,-48.00,-4.65,-34.35,23.3
2026/05/04 21:57:10.84,IMU,846.19,-81.05,-506.84,-1.68,-3.15,2.06,-52.95,-7.20,-30.60,23.3
2026/05/04 21:57:10.94,IMU,894.53,-63.96,-480.47,-3.73,4.48,2.32,-49.35,-3.90,-33.60,23.4
2026/05/04 21:57:11.04,IMU,875.00,-48.83,-461.43,-1.45,1.68,1.50,-48.00,-3.90,-35.55,23.3
2026/05/04 21:57:11.14,IMU,882.81,-69.34,-460.94,-2.05,-0.40,0.71,-48.30,-3.90,-34.05,23.3
2026/05/04 21:57:11.25,IMU,872.07,-69.82,-505.37,-2.97,-5.99,-2.84,-51.60,-5.85,-33.30,23.1
2026/05/04 21:57:11.35,IMU,869.63,-69.82,-515.14,-2.92,0.25,-3.35,-46.65,-4.05,-36.45,23.3
2026/05/04 21:57:11.45,IMU,864.26,-65.92,-472.17,5.70,5.63,2.56,-47.70,-5.25,-34.20,23.3
2026/05/04 21:57:11.55,IMU,859.86,-43.46,-459.96,1.66,-1.20,3.01,-47.70,-5.55,-35.25,23.2
2026/05/04 21:57:11.67,IMU,853.03,-67.87,-511.72,1.56,0.64,-3.84,-47.10,-4.80,-35.25,23.4
2026/05/04 21:57:11.77,IMU,858.40,-93.75,-435.06,3.68,8.59,-0.15,-48.45,-4.50,-34.65,23.2
2026/05/04 21:57:11.87,IMU,896.97,-56.15,-447.75,-3.03,4.45,5.60,-49.35,-4.35,-35.10,23.1
2026/05/04 21:57:11.97,IMU,890.14,-70.80,-434.57,-9.92,-2.48,3.05,-48.15,-3.75,-34.65,23.2
2026/05/04 21:57:12.07,IMU,882.81,-35.64,-453.61,-7.73,1.35,8.26,-48.90,-4.80,-36.45,23.3
2026/05/04 21:57:12.17,IMU,858.89,-47.36,-463.87,-6.69,-5.40,-0.27,-48.45,-4.80,-37.05,22.9
2026/05/04 21:57:12.27,IMU,896.00,-12.21,-459.96,-7.49,-4.90,8.63,-51.30,-5.10,-34.05,23.3
2026/05/04 21:57:12.37,IMU,862.79,-55.18,-530.76,-8.18,-1.81,11.65,-47.25,-4.35,-38.40,23.2
2026/05/04 21:57:12.47,IMU,868.16,-36.13,-528.32,-5.16,0.26,5.74,-48.45,-3.75,-39.30,23.2
2026/05/04 21:57:12.57,IMU,833.01,-78.12,-529.30,-1.30,3.53,-0.79,-45.90,-3.75,-39.30,23.1
2026/05/04 21:57:12.67,IMU,845.21,-48.34,-391.11,-2.21,0.04,4.81,-46.50,-5.40,-38.70,23.4
2026/05/04 21:57:12.77,IMU,884.28,-48.83,-538.57,-18.84,14.64,-15.41,-46.35,-2.55,-38.85,23.2
2026/05/04 21:57:12.87,IMU,891.11,34.18,-656.25,-0.73,-10.89,-14.46,-46.05,-1.20,-39.15,23.1
2026/05/04 21:57:12.97,IMU,866.21,63.48,-683.11,3.39,-23.18,-10.89,-48.15,-1.05,-38.85,23.1
2026/05/04 21:57:13.08,IMU,857.91,-39.06,-623.54,-6.96,2.95,-1.93,-45.90,-3.00,-40.05,22.9
2026/05/04 21:57:13.18,IMU,797.85,5.86,-614.75,5.59,-1.82,-1.63,-45.60,-2.25,-40.35,23.4
2026/05/04 21:57:13.29,IMU,785.16,-27.83,-593.75,6.80,-0.30,-7.58,-49.65,-3.75,-36.00,23.3
2026/05/04 21:57:13.39,IMU,895.51,-47.36,-513.67,8.01,-1.78,-10.55,-47.55,-1.95,-37.65,22.9
2026/05/04 21:57:13.49,IMU,885.74,31.25,-577.64,7.19,-4.05,-6.92,-47.25,-2.40,-37.95,23.3
2026/05/04 21:57:13.59,IMU,846.19,-31.74,-559.08,6.05,-9.27,-1.42,-48.90,-1.50,-37.05,23.1
2026/05/04 21:57:13.69,IMU,833.50,-71.29,-495.12,7.31,-0.74,-0.34,-49.65,0.00,-37.05,23.0
2026/05/04 21:57:13.79,IMU,890.14,-3.42,-607.42,2.36,0.48,-4.53,-47.10,-2.55,-37.50,22.9
2026/05/04 21:57:13.89,IMU,845.70,23.93,-510.25,8.27,0.31,5.69,-49.35,-1.20,-37.95,23.2
2026/05/04 21:57:13.99,IMU,837.89,-22.46,-547.36,-4.02,2.37,-6.34,-47.40,-3.75,-36.75,23.1
2026/05/04 21:57:14.09,IMU,816.41,-31.25,-537.60,4.65,-4.46,0.74,-48.00,-3.60,-37.65,23.1
2026/05/04 21:57:14.19,IMU,864.26,-65.43,-532.71,-3.96,-6.60,-5.12,-48.15,-3.30,-37.05,23.3
2026/05/04 21:57:14.31,IMU,831.54,17.58,-549.32,-3.47,-16.60,1.06,-51.30,-5.85,-33.30,23.1
2026/05/04 21:57:14.40,IMU,830.57,-35.16,-581.54,-7.17,-23.31,9.01,-47.40,-2.55,-37.80,23.6
2026/05/04 21:57:14.51,IMU,806.64,-28.81,-650.88,2.87,-15.41,-1.18,-46.35,-3.00,-38.55,23.3
2026/05/04 21:57:14.61,IMU,837.40,22.46,-541.50,-1.36,-8.89,9.15,-45.90,-3.30,-40.05,23.1
2026/05/04 21:57:14.71,IMU,814.94,-45.90,-591.80,2.91,14.31,5.73,-44.70,-2.70,-38.70,23.1
2026/05/04 21:57:14.82,IMU,820.31,-59.57,-564.94,-3.23,-0.21,3.91,-45.00,-3.15,-39.15,23.3
2026/05/04 21:57:14.92,IMU,825.20,-30.27,-587.40,-4.07,8.69,2.07,-45.15,-3.00,-39.30,23.3
2026/05/04 21:57:15.02,IMU,802.25,-63.96,-596.68,0.32,1.27,5.55,-44.85,-3.75,-39.30,22.9
2026/05/04 21:57:15.13,IMU,810.06,-41.99,-605.47,-8.30,5.05,-3.53,-45.60,-3.30,-40.05,22.9
2026/05/04 21:57:15.23,IMU,850.10,-41.02,-590.33,-8.90,2.12,-3.11,-45.15,-2.25,-41.85,22.9
2026/05/04 21:57:15.33,IMU,818.36,-0.98,-599.12,-1.09,-7.62,10.69,-48.30,-6.15,-35.55,23.1
2026/05/04 21:57:15.43,IMU,778.32,-29.79,-578.13,1.78,-0.27,4.38,-44.40,-1.80,-39.60,23.1
2026/05/04 21:57:15.53,IMU,818.36,-50.78,-617.68,-6.54,-8.53,1.49,-43.20,-1.65,-41.55,23.3
2026/05/04 21:57:15.63,IMU,784.67,-45.90,-569.34,-8.92,-8.38,12.11,-43.05,-3.75,-41.10,23.1
2026/05/04 21:57:15.73,IMU,803.71,-97.66,-639.65,-0.31,5.24,6.21,-44.10,-2.25,-42.45,23.1
2026/05/04 21:57:15.83,IMU,826.66,-52.73,-528.81,5.68,11.24,8.36,-43.35,-2.55,-40.35,23.1
2026/05/04 21:57:15.93,IMU,811.52,5.37,-515.63,0.01,0.55,6.43,-44.70,-2.40,-40.95,23.0
2026/05/04 21:57:16.03,IMU,827.15,-68.85,-500.49,-9.18,-1.92,4.66,-44.40,-4.50,-40.05,23.1
2026/05/04 21:57:16.13,IMU,808.11,-81.54,-624.51,-6.10,-17.66,-2.33,-43.20,-2.70,-42.00,22.9
2026/05/04 21:57:16.25,IMU,812.01,-8.30,-629.39,2.32,0.83,1.44,-43.95,-3.60,-40.20,23.3
2026/05/04 21:57:16.35,IMU,772.95,-54.69,-628.42,5.53,7.37,-0.85,-46.50,-4.35,-37.95,23.1
2026/05/04 21:57:16.45,IMU,781.25,-55.18,-611.33,9.23,14.26,-1.39,-43.95,-2.70,-41.55,23.3
2026/05/04 21:57:16.55,IMU,804.69,-77.15,-628.42,-1.50,9.62,-5.13,-43.65,-3.00,-42.15,23.1
2026/05/04 21:57:16.65,IMU,784.18,-92.29,-579.10,4.05,-6.30,3.16,-43.95,-1.95,-40.95,23.1
2026/05/04 21:57:16.75,IMU,784.67,-69.34,-519.53,9.49,2.61,3.96,-42.60,-3.30,-41.40,22.9
2026/05/04 21:57:16.85,IMU,802.73,-138.18,-752.93,-6.95,-24.92,2.95,-40.65,-3.60,-40.95,22.9
2026/05/04 21:57:16.95,IMU,795.90,30.27,-682.13,-1.31,-25.35,9.74,-41.10,-3.30,-42.15,22.8
2026/05/04 21:57:17.05,IMU,767.09,-47.85,-620.12,-23.17,11.36,3.38,-40.35,-3.00,-43.65,23.3
2026/05/04 21:57:17.15,IMU,751.95,40.04,-607.91,-13.85,9.44,13.65,-42.60,-4.80,-40.35,23.2
2026/05/04 21:57:17.25,IMU,815.43,-93.75,-610.35,-4.54,13.56,9.57,-38.55,-1.80,-44.70,23.3
2026/05/04 21:57:17.36,IMU,730.96,-5.37,-658.69,-1.38,-10.47,-19.99,-42.00,-5.40,-41.55,23.2
2026/05/04 21:57:17.46,IMU,750.00,-85.94,-620.61,1.54,-2.92,0.47,-38.40,-2.70,-46.35,23.3
2026/05/04 21:57:17.56,IMU,756.84,-96.19,-761.72,22.88,-26.59,-15.75,-37.80,-2.25,-46.80,23.1
2026/05/04 21:57:17.68,IMU,631.84,-55.66,-712.40,29.42,-1.38,-21.04,-39.60,-3.30,-46.20,23.1
2026/05/04 21:57:17.78,IMU,740.23,-80.08,-663.09,17.56,13.07,-20.98,-39.60,-4.80,-44.70,23.3
2026/05/04 21:57:17.88,IMU,753.91,23.93,-662.11,23.34,1.93,-27.02,-40.35,-4.80,-42.15,23.3
2026/05/04 21:57:17.99,IMU,652.83,-88.38,-718.75,17.17,-2.11,-12.66,-40.95,-6.60,-39.75,23.3
2026/05/04 21:57:18.09,IMU,756.35,-3.42,-726.56,7.82,-0.36,-19.82,-43.20,-3.90,-40.20,22.9
2026/05/04 21:57:18.19,IMU,726.07,-55.66,-717.77,5.04,-0.33,-7.52,-43.35,-5.25,-38.85,23.2
2026/05/04 21:57:18.29,IMU,705.57,-51.27,-688.48,1.65,-4.07,-1.18,-44.40,-6.00,-39.60,23.1
2026/05/04 21:57:18.39,IMU,685.06,-79.10,-723.14,-0.48,-8.99,-0.21,-47.10,-7.20,-36.45,23.2
2026/05/04 21:57:18.49,IMU,750.49,-40.04,-694.34,-0.38,-8.51,5.04,-43.95,-4.65,-39.45,23.2
2026/05/04 21:57:18.59,IMU,711.91,-98.14,-689.45,-1.27,-5.63,10.87,-42.00,-5.10,-37.65,23.1
2026/05/04 21:57:18.69,IMU,675.29,-96.68,-683.11,3.49,-4.95,-0.69,-43.50,-4.35,-38.70,23.3
2026/05/04 21:57:18.79,IMU,715.33,-54.20,-762.70,-1.87,-0.53,5.37,-43.95,-4.65,-40.20,23.2
2026/05/04 21:57:18.89,IMU,721.19,-57.13,-730.47,-0.50,-4.62,12.90,-42.75,-5.85,-40.50,23.3
2026/05/04 21:57:18.99,IMU,666.02,-94.24,-667.48,5.21,-9.09,10.31,-42.45,-5.40,-40.20,22.8
2026/05/04 21:57:19.10,IMU,732.42,-62.99,-678.71,-9.27,-2.28,-5.33,-41.85,-5.25,-40.05,22.8
2026/05/04 21:57:19.20,IMU,769.04,-35.64,-711.43,-3.30,7.99,-3.73,-42.00,-4.65,-40.50,23.1
2026/05/04 21:57:19.30,IMU,695.80,-83.01,-771.00,0.02,-1.09,1.17,-43.20,-5.10,-39.15,23.2
2026/05/04 21:57:19.42,IMU,708.98,-32.71,-797.36,11.31,-23.08,4.76,-43.95,-3.90,-39.15,22.8
2026/05/04 21:57:19.52,IMU,752.44,-52.73,-697.27,-0.43,-10.61,0.73,-44.10,-4.50,-40.35,23.0
2026/05/04 21:57:19.62,IMU,739.75,-71.29,-691.41,-3.81,-10.61,3.36,-41.70,-4.65,-39.45,23.1
2026/05/04 21:57:19.73,IMU,708.98,-79.10,-737.79,-5.74,-10.63,8.08,-41.55,-4.80,-42.45,23.2
2026/05/04 21:57:19.83,IMU,687.99,-69.82,-748.54,-7.11,-8.40,3.89,-40.95,-5.85,-42.00,23.1
2026/05/04 21:57:19.93,IMU,684.57,-81.05,-769.04,-7.13,-2.79,-0.05,-39.90,-3.90,-42.30,23.1
2026/05/04 21:57:20.03,IMU,700.20,-52.25,-770.51,-7.00,-3.56,-1.02,-41.25,-4.65,-42.00,23.1
2026/05/04 21:57:20.13,IMU,702.15,-70.80,-725.59,-1.27,-11.41,5.15,-40.95,-3.60,-42.75,22.9
2026/05/04 21:57:20.23,IMU,678.22,-36.13,-744.63,-0.60,0.62,2.68,-39.30,-3.30,-43.95,22.6
2026/05/04 21:57:20.34,IMU,721.68,-69.34,-722.17,0.89,-6.27,-0.19,-39.45,-3.90,-43.35,23.1
2026/05/04 21:57:20.44,IMU,722.17,-42.97,-699.22,-1.12,18.61,0.89,-40.65,-6.60,-41.55,22.9
2026/05/04 21:57:20.54,IMU,764.65,-49.32,-669.92,-19.45,17.83,4.13,-40.20,-3.90,-41.25,22.9
2026/05/04 21:57:20.64,IMU,755.86,-16.11,-737.30,0.88,-20.29,4.86,-40.65,-3.60,-42.00,23.2
2026/05/04 21:57:20.74,IMU,673.83,-61.52,-663.57,8.17,6.21,8.55,-39.15,-3.90,-42.75,23.3
2026/05/04 21:57:20.84,IMU,727.05,-45.41,-625.00,-1.22,28.55,-0.12,-39.60,-3.75,-42.90,23.1
2026/05/04 21:57:20.94,IMU,751.95,-22.46,-636.72,4.31,2.25,-2.82,-39.90,-5.10,-43.05,23.3
2026/05/04 21:57:21.04,IMU,743.65,-51.27,-606.45,2.20,-4.85,-0.92,-42.45,-5.10,-42.30,23.1
2026/05/04 21:57:21.16,IMU,775.88,-24.90,-637.21,3.15,-4.06,-2.09,-41.70,-3.60,-42.00,23.2
2026/05/04 21:57:21.26,IMU,738.28,-51.27,-660.16,5.13,-8.00,-2.63,-42.30,-2.55,-40.65,22.9
2026/05/04 21:57:21.36,IMU,724.61,-72.27,-669.92,-3.73,2.44,1.65,-41.25,-3.90,-42.75,23.2
2026/05/04 21:57:21.47,IMU,725.59,-58.11,-675.29,-8.71,10.23,-12.81,-45.60,-4.50,-38.55,23.1
2026/05/04 21:57:21.57,IMU,776.86,20.51,-643.55,-14.28,-5.73,-1.91,-42.45,-1.95,-42.75,22.9
2026/05/04 21:57:21.67,IMU,750.00,-45.41,-743.65,-1.56,-20.95,-2.95,-43.50,-1.65,-43.80,23.1
2026/05/04 21:57:21.77,IMU,740.72,18.55,-764.16,11.63,-4.36,7.30,-43.20,-1.95,-42.75,23.1
2026/05/04 21:57:21.87,IMU,731.45,0.49,-529.30,2.29,-16.11,3.83,-41.10,-3.75,-42.90,22.9
2026/05/04 21:57:21.97,IMU,754.39,-24.90,-644.04,3.85,-19.03,0.40,-43.20,-1.95,-41.55,23.3
2026/05/04 21:57:22.07,IMU,740.23,22.95,-712.89,0.22,-4.59,0.08,-42.45,-2.40,-42.30,22.9
2026/05/04 21:57:22.17,IMU,700.20,-22.95,-714.84,8.24,5.66,-0.41,-41.10,-2.25,-43.20,22.8
2026/05/04 21:57:22.27,IMU,685.06,-34.67,-702.15,12.90,-0.47,-1.05,-40.80,-2.55,-41.40,23.1
2026/05/04 21:57:22.37,IMU,701.66,-14.65,-729.98,3.41,-3.37,-7.77,-43.65,-4.50,-41.10,22.8
2026/05/04 21:57:22.49,IMU,770.51,2.93,-678.22,-4.39,1.94,-5.99,-45.75,-4.65,-36.15,23.1
2026/05/04 21:57:22.59,IMU,711.43,-9.77,-707.03,-2.51,0.47,-0.76,-41.25,-1.95,-43.05,23.1
2026/05/04 21:57:22.69,IMU,714.36,3.91,-741.21,-3.61,-2.62,2.95,-41.85,-2.25,-42.90,22.9
2026/05/04 21:57:22.79,IMU,687.99,-21.97,-761.72,0.96,-16.44,-12.52,-40.80,-1.80,-42.15,23.1
2026/05/04 21:57:22.90,IMU,662.11,-12.70,-750.49,7.27,-12.40,-1.72,-41.55,-2.55,-43.65,23.1
2026/05/04 21:57:23.00,IMU,718.26,13.18,-735.35,-4.65,-3.39,1.75,-42.30,-3.00,-43.20,23.3
2026/05/04 21:57:23.10,IMU,691.41,11.23,-716.31,0.29,-6.84,-2.07,-40.80,-1.05,-43.65,22.9
2026/05/04 21:57:23.22,IMU,681.15,-8.30,-723.14,-7.54,10.37,0.89,-42.60,-1.05,-43.20,23.1
2026/05/04 21:57:23.32,IMU,720.21,33.69,-722.17,-7.09,5.00,6.26,-41.10,-0.30,-43.65,22.9
2026/05/04 21:57:23.42,IMU,707.03,0.00,-732.91,-1.78,-2.30,4.02,-41.25,-2.70,-43.80,22.9
2026/05/04 21:57:23.52,IMU,703.61,11.23,-724.61,0.58,-6.85,7.69,-43.35,-3.00,-40.35,23.0
2026/05/04 21:57:23.62,IMU,700.68,13.18,-736.33,-1.62,-5.92,5.18,-41.55,-1.05,-43.65,23.1
2026/05/04 21:57:23.72,IMU,689.45,6.35,-733.89,-1.14,-3.79,2.61,-40.65,-1.65,-43.35,22.9
2026/05/04 21:57:23.82,IMU,710.94,9.28,-736.33,-2.35,7.14,4.70,-39.45,-2.70,-45.15,23.1
2026/05/04 21:57:23.92,IMU,680.18,-5.86,-699.71,1.93,6.36,8.14,-40.95,-2.70,-44.10,23.1
2026/05/04 21:57:24.03,IMU,711.43,12.70,-692.38,-6.78,-2.64,13.24,-40.35,-1.05,-44.25,23.1
2026/05/04 21:57:24.13,IMU,668.95,-23.44,-739.75,5.63,-8.42,8.79,-38.25,-3.30,-45.00,22.8
2026/05/04 21:57:24.23,IMU,672.85,-17.09,-744.63,4.61,3.44,5.94,-38.40,-2.70,-44.85,22.9
2026/05/04 21:57:24.33,IMU,678.22,-30.76,-676.76,-6.89,11.46,5.60,-38.55,-2.25,-44.25,22.9
2026/05/04 21:57:24.43,IMU,708.01,-36.13,-761.23,-7.10,-0.54,-5.60,-39.45,-5.40,-39.75,22.9
2026/05/04 21:57:24.54,IMU,707.03,-4.88,-802.25,7.58,-14.78,11.31,-40.95,-5.10,-41.55,22.8
2026/05/04 21:57:24.63,IMU,713.38,-8.79,-683.59,5.40,9.97,10.16,-37.05,-2.55,-44.70,23.1
2026/05/04 21:57:24.73,IMU,634.77,-39.06,-723.14,-9.97,-13.50,4.87,-37.65,-3.60,-44.55,22.9
2026/05/04 21:57:24.84,IMU,660.16,-86.43,-784.18,-4.46,-31.84,-1.89,-37.80,-2.25,-45.45,22.9
2026/05/04 21:57:24.94,IMU,746.09,-39.06,-747.07,5.17,6.23,-9.09,-37.20,-3.15,-45.15,23.0
2026/05/04 21:57:25.04,IMU,725.10,-45.90,-723.14,-7.79,10.05,-3.11,-38.55,-3.00,-45.45,22.9
2026/05/04 21:57:25.14,IMU,695.31,-56.64,-728.52,-0.31,-12.37,-3.37,-37.50,-3.00,-44.25,22.6
2026/05/04 21:57:25.26,IMU,654.30,-53.22,-732.91,8.61,-4.46,-2.24,-37.20,-2.70,-45.60,23.3
2026/05/04 21:57:25.36,IMU,744.63,-15.14,-665.04,-5.31,5.05,0.69,-39.00,-3.75,-45.45,23.1
2026/05/04 21:57:25.46,IMU,684.57,-32.71,-692.38,-2.76,10.04,2.02,-40.05,-3.00,-43.95,23.1
2026/05/04 21:57:25.58,IMU,701.66,-5.86,-732.42,3.27,1.74,-9.55,-42.75,-5.40,-41.25,23.1
2026/05/04 21:57:25.68,IMU,674.80,-16.60,-750.49,3.59,-0.34,-8.20,-38.70,-1.95,-44.10,23.1
2026/05/04 21:57:25.78,IMU,637.21,-40.53,-764.16,7.00,-14.34,-3.60,-37.80,-1.80,-45.00,23.1
2026/05/04 21:57:25.88,IMU,779.79,36.62,-634.28,2.82,1.52,4.69,-38.70,-2.40,-45.15,22.8
2026/05/04 21:57:25.98,IMU,617.19,-27.34,-859.86,0.15,18.70,-7.91,-37.20,-1.20,-46.65,22.9
2026/05/04 21:57:26.08,IMU,548.83,-13.18,-936.52,8.83,15.20,-21.98,-37.50,-1.80,-45.00,23.0
2026/05/04 21:57:26.18,IMU,559.08,-93.26,-867.68,7.53,-7.98,-21.02,-42.45,-4.65,-42.75,22.8
2026/05/04 21:57:26.28,IMU,686.04,35.64,-768.55,16.43,-15.40,-20.63,-37.65,-1.65,-44.85,22.8
2026/05/04 21:57:26.38,IMU,664.55,1.46,-807.13,19.55,-3.13,1.08,-38.25,-3.30,-43.65,23.1
2026/05/04 21:57:26.48,IMU,659.18,-35.64,-765.63,-1.50,-16.50,18.08,-38.25,-4.50,-44.25,23.1
2026/05/04 21:57:26.58,IMU,571.29,-66.89,-934.08,-12.65,-37.25,0.57,-36.60,-4.35,-44.10,23.1
2026/05/04 21:57:26.70,IMU,560.06,13.18,-942.87,12.35,6.96,1.62,-36.30,-4.50,-45.00,23.1
2026/05/04 21:57:26.80,IMU,574.22,-33.20,-847.66,19.50,-14.87,-1.98,-36.00,-4.50,-45.45,23.1
2026/05/04 21:57:26.90,IMU,565.43,-111.33,-802.25,3.32,-14.19,4.69,-33.75,-4.50,-45.00,23.2
2026/05/04 21:57:27.01,IMU,513.18,-98.63,-806.64,3.82,-8.58,-1.14,-33.00,-5.25,-45.75,23.1
2026/05/04 21:57:27.11,IMU,583.50,-12.70,-808.11,9.76,-5.11,14.40,-33.75,-5.55,-45.00,23.1
2026/05/04 21:57:27.21,IMU,528.32,-125.00,-854.98,16.34,-3.61,-3.25,-31.95,-6.45,-44.25,23.1
2026/05/04 21:57:27.32,IMU,504.88,-122.56,-835.94,-0.33,25.37,-5.19,-32.85,-7.35,-44.55,23.1
2026/05/04 21:57:27.42,IMU,511.23,-137.21,-788.09,-1.05,33.36,-6.80,-34.50,-8.25,-43.20,23.1
2026/05/04 21:57:27.52,IMU,519.53,-9.28,-959.47,-28.90,1.72,-12.94,-35.55,-5.55,-43.65,23.1
2026/05/04 21:57:27.63,IMU,539.06,-103.52,-865.72,9.62,0.52,10.96,-39.00,-7.95,-38.25,23.0
2026/05/04 21:57:27.73,IMU,504.88,-110.35,-841.31,-13.37,6.56,-7.84,-36.90,-6.15,-43.35,23.1
2026/05/04 21:57:27.83,IMU,567.87,-63.96,-879.39,3.04,5.98,-22.10,-37.20,-4.35,-43.80,23.1
2026/05/04 21:57:27.93,IMU,561.04,-43.95,-864.75,4.02,-2.53,-8.18,-37.50,-4.50,-42.90,23.1
2026/05/04 21:57:28.03,IMU,547.36,-113.28,-867.68,2.76,25.64,-14.11,-36.30,-4.05,-43.20,23.2
2026/05/04 21:57:28.13,IMU,640.63,-48.34,-736.33,4.24,-7.56,-4.93,-38.40,-5.85,-41.55,23.1
2026/05/04 21:57:28.23,IMU,588.87,-56.15,-784.67,5.98,-8.04,-3.83,-37.80,-4.50,-43.65,22.9
2026/05/04 21:57:28.33,IMU,581.05,-11.23,-845.21,0.50,-23.12,-4.53,-39.15,-5.10,-43.80,22.9
2026/05/04 21:57:28.45,IMU,596.19,-53.71,-852.54,-5.48,-3.85,4.95,-37.65,-2.70,-42.75,23.1
2026/05/04 21:57:28.55,IMU,568.85,-42.97,-837.89,0.15,14.22,-3.60,-38.40,-5.10,-42.75,23.3
2026/05/04 21:57:28.65,IMU,540.53,-22.95,-838.38,-8.31,10.95,3.32,-41.25,-6.60,-39.15,22.8
2026/05/04 21:57:28.75,IMU,567.87,-11.72,-816.89,-0.98,-6.18,2.84,-39.15,-3.90,-44.55,23.1
2026/05/04 21:57:28.85,IMU,562.99,-46.39,-848.63,-0.78,-7.27,-7.16,-38.25,-2.55,-43.20,23.2
2026/05/04 21:57:28.95,IMU,595.21,15.14,-861.82,-1.70,8.05,2.07,-37.80,-2.55,-44.70,22.9
2026/05/04 21:57:29.05,IMU,565.43,-24.41,-797.85,5.40,8.52,0.48,-38.55,-3.30,-44.25,23.1
2026/05/04 21:57:29.15,IMU,579.59,25.39,-767.09,5.95,-18.05,10.25,-37.80,-4.50,-44.25,23.1
2026/05/04 21:57:29.25,IMU,527.34,-31.74,-771.00,6.69,15.64,4.31,-36.60,-4.65,-43.80,22.8
2026/05/04 21:57:29.35,IMU,511.72,-58.11,-809.57,-9.98,15.90,0.76,-36.60,-5.10,-43.35,22.8
2026/05/04 21:57:29.45,IMU,685.55,-7.32,-787.60,-16.73,13.82,-17.86,-38.55,-4.50,-44.70,22.8
2026/05/04 21:57:29.55,IMU,615.72,26.37,-759.28,1.67,-7.16,4.82,-39.00,-3.30,-45.00,23.1
2026/05/04 21:57:29.67,IMU,522.95,5.86,-809.57,-6.55,7.66,8.29,-42.30,-4.05,-39.30,22.9
2026/05/04 21:57:29.77,IMU,593.75,2.44,-805.66,4.18,13.05,2.37,-37.05,-3.75,-43.20,22.9
2026/05/04 21:57:29.88,IMU,572.27,-12.21,-793.95,2.66,-15.64,0.89,-37.05,-4.05,-43.95,23.3
2026/05/04 21:57:29.98,IMU,500.98,-97.17,-867.68,7.95,5.59,-2.23,-37.80,-4.05,-45.00,23.1
2026/05/04 21:57:30.08,IMU,523.93,-35.64,-877.44,-0.50,22.89,-6.16,-36.90,-3.90,-44.55,23.1
2026/05/04 21:57:30.18,IMU,592.29,-10.25,-855.47,-6.33,-11.36,-13.75,-36.30,-3.75,-43.95,22.9
2026/05/04 21:57:30.28,IMU,545.41,-6.84,-939.94,-6.18,-11.60,-8.81,-36.30,-4.50,-44.70,23.1
2026/05/04 21:57:30.38,IMU,538.09,-27.34,-878.42,1.38,7.24,-2.98,-36.75,-4.05,-44.25,23.1
2026/05/04 21:57:30.48,IMU,544.43,-9.28,-884.28,5.53,-9.34,-7.56,-37.50,-3.30,-46.20,22.9
2026/05/04 21:57:30.58,IMU,519.53,-24.90,-843.26,3.58,-14.82,-10.86,-37.50,-2.40,-44.85,22.9
2026/05/04 21:57:30.69,IMU,578.13,38.57,-885.25,5.27,2.66,-9.80,-41.70,-4.35,-40.95,23.3
2026/05/04 21:57:30.79,IMU,562.01,-9.28,-819.82,3.87,3.79,-4.70,-37.80,-3.00,-44.70,23.2
2026/05/04 21:57:30.89,IMU,539.55,12.21,-868.65,3.95,2.02,-0.76,-39.60,-3.75,-44.70,23.1
2026/05/04 21:57:30.99,IMU,576.17,-9.28,-816.89,-2.11,-0.48,10.63,-37.80,-4.05,-44.25,22.9
2026/05/04 21:57:31.09,IMU,526.37,-12.21,-908.69,-6.90,-1.01,9.66,-38.70,-3.60,-45.15,22.8
2026/05/04 21:57:31.19,IMU,557.13,-15.63,-899.90,-2.75,-0.85,4.33,-37.50,-1.50,-45.45,22.8
2026/05/04 21:57:31.30,IMU,525.39,16.11,-856.93,-0.81,2.71,4.55,-36.60,-3.90,-44.10,23.0
2026/05/04 21:57:31.40,IMU,527.83,11.23,-927.73,-2.52,2.59,8.24,-37.65,-2.70,-45.60,23.3
2026/05/04 21:57:31.50,IMU,527.34,-6.84,-856.45,6.39,19.31,9.52,-36.00,-3.75,-45.75,22.8
2026/05/04 21:57:31.61,IMU,565.92,-25.88,-779.30,0.95,18.37,7.67,-36.60,-3.90,-45.15,23.0
2026/05/04 21:57:31.71,IMU,572.27,-28.81,-824.22,-5.57,1.38,9.37,-41.10,-7.50,-39.60,23.1
2026/05/04 21:57:31.81,IMU,578.13,-26.37,-837.40,2.05,3.56,7.53,-37.50,-4.80,-42.90,22.9
2026/05/04 21:57:31.92,IMU,535.64,-84.47,-762.21,-6.43,4.38,3.09,-34.95,-4.50,-45.00,23.2
2026/05/04 21:57:32.02,IMU,550.78,-101.07,-770.51,-5.59,8.63,6.18,-36.30,-5.25,-43.65,22.8
2026/05/04 21:57:32.12,IMU,564.94,-60.55,-828.61,-9.70,7.53,5.27,-36.75,-4.50,-45.00,23.1
2026/05/04 21:57:32.22,IMU,536.62,-32.71,-863.28,0.34,-8.56,13.17,-34.50,-4.80,-46.20,23.3
2026/05/04 21:57:32.32,IMU,534.18,-104.49,-832.03,-5.37,2.47,6.09,-33.30,-4.35,-45.15,22.9
2026/05/04 21:57:32.42,IMU,512.21,-50.29,-882.81,-0.11,2.11,7.09,-33.75,-4.50,-46.20,22.9
2026/05/04 21:57:32.52,IMU,555.18,-24.90,-824.71,0.56,16.08,7.99,-35.85,-5.85,-44.85,23.1
2026/05/04 21:57:32.62,IMU,547.36,-50.29,-732.91,-0.42,13.71,5.11,-36.60,-4.35,-45.15,22.9
2026/05/04 21:57:32.76,IMU,585.45,-74.22,-832.52,-5.29,-22.85,1.41,-34.95,-5.55,-44.25,23.1
2026/05/04 21:57:32.86,IMU,560.55,-44.43,-946.78,6.32,-22.71,-2.35,-34.20,-4.80,-46.20,22.8
2026/05/04 21:57:32.96,IMU,539.55,-79.59,-890.63,5.65,-5.35,1.90,-34.95,-5.25,-45.45,22.8
2026/05/04 21:57:33.06,IMU,559.57,-79.59,-865.72,-2.72,1.75,5.37,-35.85,-6.60,-45.15,23.0
2026/05/04 21:57:33.16,IMU,546.39,-89.36,-849.12,2.70,-4.03,1.69,-35.10,-6.60,-44.10,23.1
2026/05/04 21:57:33.26,IMU,535.16,-110.35,-872.56,-8.85,0.27,3.38,-34.65,-6.60,-43.80,23.0
2026/05/04 21:57:33.36,IMU,576.17,-123.05,-850.59,-6.46,35.24,-1.39,-36.75,-6.45,-41.40,23.1
2026/05/04 21:57:33.46,IMU,585.94,-55.18,-945.31,0.21,19.87,8.18,-35.85,-3.90,-43.80,23.1
2026/05/04 21:57:33.56,IMU,588.38,-98.63,-824.71,-0.98,4.13,8.36,-34.50,-5.25,-44.70,22.9
2026/05/04 21:57:33.66,IMU,574.71,-89.36,-826.66,-2.96,13.89,5.48,-34.95,-4.80,-43.65,23.0
2026/05/04 21:57:33.76,IMU,583.50,-100.10,-808.59,3.89,-14.85,3.24,-35.55,-4.80,-42.15,22.8
2026/05/04 21:57:33.86,IMU,572.27,-93.26,-819.82,-1.27,-7.94,3.78,-33.60,-6.60,-44.10,22.9
2026/05/04 21:57:33.96,IMU,559.57,-136.72,-873.54,-3.05,-7.40,3.55,-34.20,-6.45,-43.95,22.9
2026/05/04 21:57:34.07,IMU,547.36,-101.56,-907.71,5.36,-1.40,1.40,-33.60,-5.85,-43.80,23.1
2026/05/04 21:57:34.17,IMU,510.25,-108.40,-860.84,-3.44,13.16,-12.85,-33.30,-5.10,-44.55,22.8
2026/05/04 21:57:34.27,IMU,533.69,-128.91,-822.75,-0.98,-11.55,-10.85,-34.35,-5.85,-44.55,22.8
2026/05/04 21:57:34.37,IMU,625.49,-70.31,-816.41,9.72,-9.59,2.98,-35.55,-4.50,-45.45,22.9
2026/05/04 21:57:34.47,IMU,568.36,-119.63,-833.01,1.83,-6.50,15.69,-35.25,-4.50,-44.25,22.8
2026/05/04 21:57:34.57,IMU,584.96,-78.12,-775.88,-2.48,-0.12,6.37,-34.20,-5.55,-44.25,22.8
2026/05/04 21:57:34.67,IMU,564.94,-70.31,-868.65,13.26,9.41,-0.05,-33.75,-6.45,-45.45,22.8
2026/05/04 21:57:34.79,IMU,560.55,-66.89,-793.95,-3.18,30.25,0.89,-38.70,-10.35,-44.70,22.8
2026/05/04 21:57:34.89,IMU,546.39,-104.00,-821.29,-1.52,11.38,-0.26,-34.35,-6.60,-44.55,23.1
2026/05/04 21:57:34.99,IMU,572.75,-118.65,-876.95,7.75,-13.48,3.59,-34.20,-6.75,-43.65,22.7
2026/05/04 21:57:35.09,IMU,544.43,-90.82,-846.19,1.60,5.97,0.46,-33.90,-5.85,-43.65,22.8
2026/05/04 21:57:35.19,IMU,618.65,-145.02,-858.40,-5.23,6.49,6.93,-34.95,-6.45,-43.65,22.7
2026/05/04 21:57:35.29,IMU,608.89,-101.56,-793.95,10.30,-5.90,12.40,-35.10,-8.40,-43.35,22.7
2026/05/04 21:57:35.39,IMU,567.38,-120.61,-777.34,11.34,12.77,-4.89,-37.05,-9.00,-40.05,22.8
2026/05/04 21:57:35.49,IMU,550.29,-133.79,-808.11,-19.34,26.32,-0.22,-33.60,-7.65,-41.40,22.8
2026/05/04 21:57:35.59,IMU,583.98,-170.90,-848.63,-13.00,5.30,0.55,-33.75,-6.00,-43.20,22.9
2026/05/04 21:57:35.69,IMU,589.84,-124.51,-904.79,-5.34,-1.80,0.79,-32.85,-6.15,-44.10,22.8
2026/05/04 21:57:35.79,IMU,581.05,-126.46,-838.38,1.38,23.92,6.21,-30.60,-7.65,-45.60,22.9
2026/05/04 21:57:35.91,IMU,536.62,-118.16,-837.40,10.70,25.40,-15.82,-33.00,-7.50,-43.95,22.9
2026/05/04 21:57:36.01,IMU,641.11,-73.24,-734.86,-17.11,20.56,-3.24,-32.70,-6.45,-43.95,22.8
2026/05/04 21:57:36.11,IMU,585.94,-131.84,-782.23,-11.58,-11.97,-6.55,-33.00,-5.55,-45.00,22.8
2026/05/04 21:57:36.23,IMU,528.81,-72.75,-871.09,-5.35,-35.94,-3.08,-32.85,-4.35,-46.35,22.8
2026/05/04 21:57:36.33,IMU,501.46,-40.53,-980.47,2.27,-2.44,-0.92,-30.45,-5.25,-47.25,22.6
2026/05/04 21:57:36.43,IMU,518.55,-27.83,-867.68,-0.63,25.09,-2.42,-30.60,-5.10,-45.60,22.6
2026/05/04 21:57:36.54,IMU,531.25,-95.21,-854.98,2.89,35.62,5.72,-32.55,-5.40,-46.35,22.9
2026/05/04 21:57:36.64,IMU,566.41,-81.05,-767.09,-5.81,-1.26,3.35,-33.45,-5.25,-46.50,22.8
2026/05/04 21:57:36.74,IMU,566.41,-97.66,-758.79,0.57,-30.65,-0.33,-33.60,-5.40,-45.15,22.7
2026/05/04 21:57:36.85,IMU,513.67,-53.22,-892.58,0.15,-4.95,-14.63,-33.30,-7.65,-43.05,22.6
2026/05/04 21:57:36.95,IMU,468.75,-75.68,-922.85,-7.42,-12.01,-8.99,-30.90,-4.05,-46.50,22.8
2026/05/04 21:57:37.05,IMU,484.86,-70.80,-968.26,0.21,5.18,-4.47,-31.50,-3.00,-47.55,22.8
2026/05/04 21:57:37.15,IMU,585.94,-28.81,-877.93,0.00,-11.43,-3.60,-31.35,-3.90,-46.65,22.8
2026/05/04 21:57:37.25,IMU,496.58,-63.48,-931.15,3.43,-2.10,-1.05,-31.50,-5.55,-47.55,22.8
2026/05/04 21:57:37.35,IMU,466.80,-99.12,-835.94,-3.71,-24.33,12.64,-30.60,-5.10,-47.40,22.8
2026/05/04 21:57:37.45,IMU,520.51,-97.66,-914.06,7.11,-5.04,-5.11,-31.80,-3.15,-46.65,22.7
2026/05/04 21:57:37.55,IMU,515.63,-25.39,-859.38,1.84,8.76,-6.18,-31.80,-4.35,-46.35,22.7
2026/05/04 21:57:37.65,IMU,513.18,-25.88,-916.02,-4.64,-0.63,-2.99,-31.80,-3.90,-47.10,22.4
2026/05/04 21:57:37.75,IMU,464.84,-63.48,-984.38,0.10,-14.21,-19.08,-34.35,-5.10,-43.35,22.8
2026/05/04 21:57:37.87,IMU,487.79,-49.32,-908.69,3.99,-37.69,-16.89,-34.50,-7.20,-42.90,22.8
2026/05/04 21:57:37.97,IMU,482.42,-55.66,-1037.11,7.39,-86.07,-4.69,-29.70,-5.25,-47.55,22.6
2026/05/04 21:57:38.07,IMU,436.04,-15.14,-975.10,17.66,-5.56,-11.18,-28.95,-3.75,-49.05,22.7
2026/05/04 21:57:38.17,IMU,411.13,-45.90,-892.58,-3.83,7.55,-4.15,-30.60,-3.30,-48.00,22.8
2026/05/04 21:57:38.28,IMU,475.59,48.83,-989.75,6.91,22.73,-13.65,-33.60,-3.15,-46.35,22.8
2026/05/04 21:57:38.38,IMU,445.80,-42.97,-980.96,14.23,-24.09,2.41,-31.50,-3.75,-46.20,22.4
2026/05/04 21:57:38.48,IMU,468.26,-142.58,-758.79,40.44,46.02,17.25,-32.70,-6.00,-45.75,22.6
2026/05/04 21:57:38.59,IMU,442.87,-124.02,-793.95,13.37,65.11,10.58,-32.55,-6.15,-45.60,22.5
2026/05/04 21:57:38.69,IMU,439.45,-118.16,-914.06,-9.66,19.77,-1.15,-30.90,-6.45,-45.45,22.6
2026/05/04 21:57:38.79,IMU,386.72,-146.00,-871.09,29.18,-28.43,13.70,-26.85,-6.75,-45.45,22.7
2026/05/04 21:57:38.89,IMU,275.88,-138.67,-979.98,4.56,-4.97,-10.92,-27.90,-10.50,-42.15,22.4
2026/05/04 21:57:38.99,IMU,225.10,-194.82,-962.40,0.79,11.99,-7.54,-23.10,-9.00,-45.00,22.4
2026/05/04 21:57:39.09,IMU,288.57,-165.04,-987.30,4.45,11.85,-11.28,-22.95,-8.40,-44.85,22.6
2026/05/04 21:57:39.20,IMU,245.12,-134.77,-1057.62,12.64,2.64,-4.79,-23.25,-8.85,-45.15,22.6
2026/05/04 21:57:39.30,IMU,217.29,-106.45,-1041.02,0.08,77.40,8.29,-26.10,-8.70,-43.95,22.6
2026/05/04 21:57:39.40,IMU,415.53,-320.80,-751.95,-76.78,107.63,30.32,-29.85,-9.60,-42.30,22.7
2026/05/04 21:57:39.50,IMU,428.71,-77.15,-1059.08,-5.67,-25.24,-29.11,-33.90,-7.65,-43.80,22.4
2026/05/04 21:57:39.60,IMU,586.43,-0.98,-772.95,-51.46,114.06,3.09,-37.65,-4.35,-43.80,22.4
2026/05/04 21:57:39.70,IMU,713.87,30.27,-675.29,-23.27,71.01,-29.16,-43.65,-1.05,-42.15,22.4
2026/05/04 21:57:39.80,IMU,742.19,39.06,-582.03,-94.05,97.92,-28.23,-50.70,0.75,-38.25,22.5
2026/05/04 21:57:39.91,IMU,906.74,161.13,-480.96,-179.38,124.86,-156.27,-58.50,9.45,-33.45,22.6
2026/05/04 21:57:40.01,IMU,952.64,487.30,-94.73,-48.51,-32.98,30.47,-60.75,17.25,-33.30,22.5
2026/05/04 21:57:40.11,IMU,978.52,224.12,-195.80,-19.76,55.34,33.05,-57.75,16.20,-36.00,22.5
2026/05/04 21:57:40.21,IMU,1002.93,340.33,-186.52,2.15,7.60,9.05,-58.05,14.40,-34.20,22.4
2026/05/04 21:57:40.34,IMU,974.12,230.47,-211.43,33.05,-74.71,17.36,-57.30,11.25,-34.65,22.2
2026/05/04 21:57:40.44,IMU,917.97,221.68,-304.20,-0.39,-4.51,-0.03,-54.90,10.05,-37.65,22.5
2026/05/04 21:57:40.54,IMU,878.42,203.13,-339.84,-4.16,-10.69,3.82,-55.80,11.25,-37.05,22.4
2026/05/04 21:57:40.64,IMU,898.44,203.13,-287.60,-2.79,-3.72,2.71,-56.25,12.45,-75.90,22.3
2026/05/04 21:57:40.74,IMU,936.04,247.07,-334.96,-2.38,7.00,-5.08,-56.40,10.80,-36.60,22.2
2026/05/04 21:57:40.84,IMU,913.57,233.40,-320.80,-1.78,-4.83,1.38,-55.05,12.15,-37.80,22.3
2026/05/04 21:57:40.94,IMU,878.91,203.13,-313.48,6.15,-0.58,-3.89,-57.90,9.60,-33.60,22.6
2026/05/04 21:57:41.04,IMU,931.15,245.12,-284.18,-2.69,4.98,2.78,-56.55,10.20,-37.50,22.2
2026/05/04 21:57:41.14,IMU,930.66,220.21,-260.74,-1.50,-4.26,-6.43,-53.70,11.25,-38.55,22.4
2026/05/04 21:57:41.24,IMU,849.61,150.88,-235.35,21.05,-26.77,-11.93,-56.10,10.05,-37.35,22.4
2026/05/04 21:57:41.34,IMU,966.80,256.84,-270.02,-9.34,22.58,-13.37,-54.15,13.05,-39.45,22.3
2026/05/04 21:57:41.44,IMU,1020.02,316.89,-222.66,-10.90,-8.39,3.71,-55.35,12.60,-40.50,22.3
2026/05/04 21:57:41.54,IMU,917.48,237.30,-313.48,-2.49,-15.14,14.85,-55.35,14.10,-39.75,22.4
2026/05/04 21:57:41.64,IMU,895.51,240.72,-363.77,1.99,-27.57,9.42,-53.40,12.30,-40.50,22.1
2026/05/04 21:57:41.78,IMU,859.38,257.32,-376.46,-3.10,-3.48,7.09,-54.45,11.70,-40.65,22.4
2026/05/04 21:57:41.88,IMU,903.81,250.98,-330.08,6.32,-4.61,4.23,-51.75,11.70,-41.10,22.6
2026/05/04 21:57:41.98,IMU,885.74,251.95,-470.70,9.11,-2.39,1.89,-55.05,9.00,-38.85,22.4
2026/05/04 21:57:42.08,IMU,894.04,184.57,-354.49,15.28,-21.47,3.30,-52.20,9.75,-42.45,22.3
2026/05/04 21:57:42.18,IMU,902.34,159.18,-441.41,16.37,-7.71,0.41,-52.35,10.05,-41.55,22.2
2026/05/04 21:57:42.28,IMU,895.51,164.06,-405.27,17.50,-4.30,9.89,-52.50,8.70,-41.40,22.4
2026/05/04 21:57:42.38,IMU,861.82,179.20,-382.81,9.78,0.30,4.72,-51.75,7.50,-40.05,22.3
2026/05/04 21:57:42.48,IMU,895.02,133.30,-354.98,6.81,-2.47,4.81,-51.45,7.50,-40.35,22.4
2026/05/04 21:57:42.58,IMU,861.33,92.77,-300.29,-6.30,3.17,-8.63,-50.70,6.45,-41.10,22.1
2026/05/04 21:57:42.68,IMU,884.77,163.09,-425.29,-3.22,-11.87,-10.89,-52.20,7.50,-40.35,22.3
2026/05/04 21:57:42.78,IMU,870.61,187.99,-453.13,10.47,6.37,8.47,-51.45,7.50,-40.65,22.2
2026/05/04 21:57:42.90,IMU,896.48,191.41,-367.19,-0.37,4.23,3.95,-51.45,6.45,-39.30,22.2
2026/05/04 21:57:43.00,IMU,868.16,114.75,-504.88,-2.60,-10.12,0.69,-51.75,3.75,-39.30,22.4
2026/05/04 21:57:43.10,IMU,910.64,93.26,-461.43,-8.19,15.14,4.42,-49.65,4.80,-41.10,22.2
2026/05/04 21:57:43.21,IMU,904.30,116.21,-379.88,-4.21,8.45,-3.04,-52.05,6.60,-40.50,22.4
2026/05/04 21:57:43.31,IMU,928.71,104.49,-372.07,-2.84,18.50,-14.14,-50.10,6.90,-40.95,22.3
2026/05/04 21:57:43.41,IMU,916.99,159.67,-334.47,3.04,-5.65,-0.92,-51.45,7.50,-40.35,22.2
2026/05/04 21:57:43.51,IMU,892.09,128.91,-396.00,-9.64,4.20,0.01,-54.15,6.90,-38.70,22.6
2026/05/04 21:57:43.61,IMU,898.44,165.04,-428.22,-15.53,-11.49,7.12,-51.30,8.40,-43.35,22.6
2026/05/04 21:57:43.71,IMU,889.65,199.71,-418.95,-17.27,0.77,11.70,-49.80,8.85,-42.00,22.4
2026/05/04 21:57:43.81,IMU,898.93,196.29,-378.42,-26.99,-5.69,5.14,-49.80,10.05,-44.55,22.4
2026/05/04 21:57:43.91,IMU,893.07,198.73,-421.88,-26.21,-5.81,9.53,-49.95,11.25,-43.65,22.6
2026/05/04 21:57:44.01,IMU,855.96,174.32,-475.59,-24.47,-9.14,9.16,-51.45,10.20,-40.65,22.2
2026/05/04 21:57:44.11,IMU,881.35,216.80,-385.74,-30.90,5.59,3.92,-49.20,14.40,-44.70,22.0
2026/05/04 21:57:44.21,IMU,874.51,206.05,-355.96,-34.37,-8.73,3.72,-47.70,15.15,-47.55,22.2
2026/05/04 21:57:44.34,IMU,876.46,220.21,-414.55,-24.05,0.69,-4.97,-48.15,16.65,-47.55,22.4
2026/05/04 21:57:44.44,IMU,914.55,270.51,-456.05,-13.63,-7.64,6.88,-46.65,18.60,-48.30,22.3
2026/05/04 21:57:44.54,IMU,884.28,229.00,-478.03,-5.02,-6.94,6.24,-46.65,16.95,-48.00,22.4
2026/05/04 21:57:44.65,IMU,858.89,225.10,-488.28,2.87,-22.32,13.87,-45.60,17.70,-48.30,22.3
2026/05/04 21:57:44.75,IMU,854.98,195.31,-471.19,7.88,-10.72,4.23,-45.90,18.60,-49.80,22.5
2026/05/04 21:57:44.85,IMU,874.51,197.75,-457.52,18.72,16.96,-10.44,-46.35,15.90,-47.25,22.5
2026/05/04 21:57:44.95,IMU,873.05,201.66,-436.52,20.44,2.05,-2.31,-50.10,14.10,-43.35,22.7
2026/05/04 21:57:45.05,IMU,779.30,220.21,-526.86,29.47,26.39,-19.80,-50.55,13.35,-44.10,22.3
2026/05/04 21:57:45.15,IMU,1026.86,247.56,-190.92,25.82,47.70,-5.95,-49.65,13.95,-45.75,22.4
2026/05/04 21:57:45.25,IMU,862.79,171.88,-385.25,-8.59,-28.50,10.34,-49.20,12.15,-44.70,22.2
2026/05/04 21:57:45.35,IMU,836.91,249.02,-448.73,-20.15,-20.86,0.92,-48.00,14.10,-45.90,22.4
2026/05/04 21:57:45.45,IMU,821.29,190.43,-442.87,-16.26,-7.61,-12.27,-48.75,14.55,-45.60,22.2
2026/05/04 21:57:45.55,IMU,942.87,259.77,-374.02,-10.50,-7.27,-6.73,-49.20,18.15,-47.55,22.4
2026/05/04 21:57:45.65,IMU,927.25,275.88,-436.04,-6.73,-1.37,4.77,-48.45,17.70,-46.50,22.4
2026/05/04 21:57:45.77,IMU,852.54,246.58,-406.25,1.79,-16.53,3.88,-48.30,16.80,-46.65,22.2
2026/05/04 21:57:45.87,IMU,838.87,229.00,-450.68,4.18,-16.92,9.82,-46.05,18.00,-48.15,22.4
2026/05/04 21:57:45.97,IMU,832.03,200.68,-491.70,6.43,24.19,1.67,-46.35,16.65,-47.25,22.2
2026/05/04 21:57:46.07,IMU,878.42,208.50,-433.59,3.05,9.70,-2.84,-47.70,17.70,-48.30,22.4
2026/05/04 21:57:46.17,IMU,901.86,210.45,-391.60,2.10,6.49,-0.76,-47.10,17.40,-46.20,22.4
2026/05/04 21:57:46.27,IMU,870.61,226.07,-424.80,-3.50,4.14,-2.83,-47.55,15.30,-45.60,22.7
2026/05/04 21:57:46.37,IMU,892.09,230.96,-437.01,-8.58,-7.27,6.09,-52.05,15.75,-43.80,22.4
2026/05/04 21:57:46.47,IMU,868.65,238.77,-442.87,-7.05,-9.37,2.79,-46.80,16.50,-47.70,22.2
2026/05/04 21:57:46.57,IMU,906.25,190.92,-382.32,-9.06,-16.11,-12.38,-45.60,16.95,-48.00,22.4
2026/05/04 21:57:46.67,IMU,830.08,248.54,-501.46,-21.56,-22.15,5.46,-44.25,18.30,-49.50,22.4
2026/05/04 21:57:46.77,IMU,795.90,257.32,-563.48,1.44,-11.28,2.68,-42.75,18.00,-52.05,22.4
2026/05/04 21:57:46.87,IMU,853.52,301.76,-433.11,5.18,2.58,0.37,-42.45,19.50,-51.00,22.5
2026/05/04 21:57:46.97,IMU,828.13,295.41,-423.34,-11.66,5.73,1.69,-43.20,19.50,-51.30,22.4
2026/05/04 21:57:47.07,IMU,805.66,274.90,-523.44,-8.62,5.52,-1.32,-44.85,18.60,-49.05,22.5
2026/05/04 21:57:47.17,IMU,882.81,329.59,-491.70,6.60,5.76,-1.15,-43.35,20.10,-51.15,22.2
2026/05/04 21:57:47.27,IMU,828.61,265.63,-488.28,6.92,-1.06,0.60,-43.95,19.80,-51.75,22.6
2026/05/04 21:57:47.37,IMU,831.54,280.76,-500.98,3.54,-1.18,-0.37,-42.75,18.30,-50.25,22.1
2026/05/04 21:57:47.48,IMU,827.64,248.54,-498.05,3.85,-2.10,0.79,-43.35,19.35,-50.10,22.3
2026/05/04 21:57:47.58,IMU,843.75,208.98,-498.54,8.71,-0.68,-4.08,-43.95,18.75,-49.20,22.5
2026/05/04 21:57:47.68,IMU,830.08,271.00,-510.25,10.53,-14.37,2.19,-43.05,17.70,-50.85,22.1
2026/05/04 21:57:47.78,IMU,783.69,268.55,-517.09,13.30,1.08,2.47,-42.60,17.40,-50.10,22.3
2026/05/04 21:57:47.88,IMU,778.81,214.36,-538.57,16.92,4.96,4.15,-41.10,16.65,-50.85,22.3
2026/05/04 21:57:47.98,IMU,829.10,203.13,-501.95,6.53,14.84,-1.94,-42.00,14.85,-51.00,22.4
2026/05/04 21:57:48.08,IMU,861.33,198.24,-482.42,6.28,4.63,2.28,-43.50,14.55,-48.45,22.4
2026/05/04 21:57:48.18,IMU,836.91,179.69,-462.89,3.48,6.44,4.29,-44.25,13.80,-50.25,22.5
2026/05/04 21:57:48.28,IMU,856.45,202.64,-502.93,-1.37,3.11,2.11,-43.65,15.45,-49.05,22.6
2026/05/04 21:57:48.38,IMU,861.33,193.85,-495.61,-2.60,-4.50,6.22,-43.35,12.15,-47.55,22.4
2026/05/04 21:57:48.48,IMU,858.40,209.96,-503.91,-2.10,0.12,-1.76,-44.40,14.40,-49.35,22.4
2026/05/04 21:57:48.58,IMU,839.36,219.73,-500.98,-2.24,0.96,0.31,-43.95,14.55,-49.20,22.4
2026/05/04 21:57:48.68,IMU,836.91,180.66,-507.81,-2.22,1.06,-1.25,-43.95,14.85,-50.25,22.4
2026/05/04 21:57:48.78,IMU,859.38,185.55,-496.09,-2.19,-0.44,1.27,-44.10,12.90,-49.05,22.4
2026/05/04 21:57:48.88,IMU,839.84,195.31,-506.84,0.44,-0.23,-0.61,-44.70,13.05,-49.50,22.3
2026/05/04 21:57:48.98,IMU,844.73,206.05,-496.58,-0.68,5.13,0.02,-43.05,14.40,-50.85,22.5
2026/05/04 21:57:49.10,IMU,834.96,195.31,-458.98,-1.17,-0.41,-0.15,-47.55,12.60,-45.90,22.4
2026/05/04 21:57:49.21,IMU,847.66,190.43,-497.56,1.03,3.06,0.66,-43.20,13.80,-48.15,22.3
2026/05/04 21:57:49.31,IMU,851.56,191.89,-508.79,0.02,0.94,-0.23,-44.25,14.85,-50.25,22.2
2026/05/04 21:57:49.41,IMU,862.79,185.06,-504.88,1.81,-11.28,1.01,-44.10,15.15,-50.85,22.3
2026/05/04 21:57:49.52,IMU,829.10,193.85,-491.21,1.79,-0.82,1.92,-43.95,14.85,-50.70,22.6
2026/05/04 21:57:49.62,IMU,817.38,184.08,-481.93,-2.80,-4.40,3.97,-45.00,14.55,-49.50,22.5
2026/05/04 21:57:49.72,IMU,835.94,208.01,-536.62,-8.15,-1.05,-6.89,-41.70,15.75,-50.70,22.6
2026/05/04 21:57:49.82,IMU,855.96,217.77,-527.83,1.79,-3.33,-1.01,-47.40,12.90,-45.00,22.4
2026/05/04 21:57:49.92,IMU,823.73,176.27,-564.45,0.41,-1.72,3.32,-42.60,15.15,-50.10,22.6
2026/05/04 21:57:50.02,IMU,830.57,223.63,-549.80,-1.26,-6.06,-2.99,-42.00,15.30,-49.95,22.4
2026/05/04 21:57:50.12,IMU,828.13,210.94,-545.90,0.95,-0.68,0.30,-45.60,12.45,-46.50,22.2
2026/05/04 21:57:50.22,IMU,811.52,170.90,-546.88,-0.66,2.75,-1.11,-40.65,15.30,-51.00,22.4
2026/05/04 21:57:50.32,IMU,821.78,215.33,-533.20,0.55,0.50,-1.46,-42.00,15.75,-51.00,22.4
2026/05/04 21:57:50.42,IMU,812.50,178.22,-515.63,3.43,-0.21,4.77,-42.00,15.30,-51.75,22.6
2026/05/04 21:57:50.52,IMU,846.68,185.06,-546.39,-1.47,16.90,-0.16,-43.20,16.05,-49.95,22.5
2026/05/04 21:57:50.62,IMU,833.50,217.29,-496.58,1.69,-0.22,5.79,-42.00,13.80,-49.50,22.6
2026/05/04 21:57:50.72,IMU,835.94,169.43,-530.76,-5.59,-5.71,2.94,-43.05,15.15,-49.80,22.8
2026/05/04 21:57:50.82,IMU,812.50,186.04,-524.41,-9.27,-6.87,9.40,-43.20,15.75,-50.70,22.4
2026/05/04 21:57:50.94,IMU,816.89,198.24,-522.46,-2.57,-5.88,5.31,-42.30,15.45,-51.15,22.4
2026/05/04 21:57:51.04,IMU,844.24,218.75,-532.71,0.22,-2.79,-0.16,-42.60,16.65,-51.90,22.4
2026/05/04 21:57:51.14,IMU,829.10,190.43,-538.09,-1.24,-3.50,-1.47,-45.60,14.70,-48.00,22.4
2026/05/04 21:57:51.24,IMU,829.59,173.34,-546.88,2.92,5.11,-0.26,-45.90,13.20,-45.75,22.4
2026/05/04 21:57:51.34,IMU,822.75,200.68,-510.74,-0.37,1.21,0.11,-42.75,16.50,-49.95,22.5
2026/05/04 21:57:51.44,IMU,853.03,194.82,-511.72,1.40,-1.66,3.74,-43.20,14.55,-51.30,22.4
2026/05/04 21:57:51.54,IMU,845.21,208.98,-515.63,1.13,0.04,2.26,-44.10,16.20,-50.40,22.4
2026/05/04 21:57:51.64,IMU,828.61,198.24,-523.93,0.05,7.79,-0.40,-41.10,15.90,-49.80,22.4
2026/05/04 21:57:51.74,IMU,817.87,150.88,-485.84,1.84,3.05,4.49,-42.30,15.45,-50.85,22.6
2026/05/04 21:57:51.84,IMU,853.52,154.30,-503.42,-5.81,-2.88,3.08,-42.45,14.55,-51.00,22.1
2026/05/04 21:57:51.94,IMU,818.36,173.83,-511.23,-7.60,-2.56,10.24,-41.85,15.15,-51.60,22.2
2026/05/04 21:57:52.04,IMU,834.47,174.32,-507.81,-10.18,4.34,-0.17,-42.60,15.90,-50.85,22.3
2026/05/04 21:57:52.15,IMU,863.77,188.96,-522.46,-8.47,9.01,-6.51,-46.05,14.85,-47.40,22.3
2026/05/04 21:57:52.25,IMU,867.68,197.75,-489.26,-1.86,-9.43,3.30,-41.85,17.40,-51.15,22.6
2026/05/04 21:57:52.37,IMU,857.42,213.87,-497.07,-1.24,-0.45,6.47,-42.00,16.50,-51.00,22.4
2026/05/04 21:57:52.47,IMU,861.33,201.66,-474.61,-7.34,-1.11,4.95,-42.75,17.25,-51.00,22.6
2026/05/04 21:57:52.57,IMU,828.13,190.43,-501.46,-5.09,6.89,4.42,-41.70,16.80,-51.75,22.4
2026/05/04 21:57:52.67,IMU,855.96,204.10,-487.30,-6.14,1.00,-2.53,-46.50,14.10,-46.35,22.4
2026/05/04 21:57:52.77,IMU,884.77,202.15,-514.16,0.04,-6.65,3.60,-42.45,16.80,-51.30,22.1
2026/05/04 21:57:52.87,IMU,833.01,149.90,-510.25,3.12,-0.88,7.11,-40.95,18.00,-52.50,22.4
2026/05/04 21:57:52.97,IMU,792.97,127.44,-527.34,3.72,-0.69,2.55,-41.55,16.95,-51.90,22.6
2026/05/04 21:57:53.07,IMU,848.63,143.07,-493.16,-0.33,-0.40,2.26,-40.95,18.30,-51.00,22.6
2026/05/04 21:57:53.17,IMU,848.14,139.65,-532.71,-0.58,1.21,2.46,-44.25,16.05,-47.40,22.6
2026/05/04 21:57:53.27,IMU,837.40,129.88,-514.65,-1.97,-0.95,7.25,-40.20,16.50,-52.80,22.7
2026/05/04 21:57:53.37,IMU,860.84,144.53,-431.64,-4.63,24.17,-9.97,-40.95,15.75,-51.75,22.3
2026/05/04 21:57:53.48,IMU,832.52,135.74,-519.04,2.75,-5.06,0.11,-40.95,16.50,-51.30,22.4
2026/05/04 21:57:53.58,IMU,846.68,157.71,-536.62,0.14,9.18,1.92,-39.60,16.20,-51.60,22.6
2026/05/04 21:57:53.68,IMU,831.54,132.32,-538.57,2.88,5.12,7.92,-40.20,15.75,-52.05,22.2
2026/05/04 21:57:53.78,IMU,839.36,126.46,-520.02,4.95,3.46,2.88,-41.10,15.90,-51.60,22.4
2026/05/04 21:57:53.88,IMU,884.28,163.09,-503.42,3.38,4.90,5.32,-39.60,16.20,-51.90,22.3
2026/05/04 21:57:53.98,IMU,850.10,93.26,-506.35,1.00,-1.31,3.79,-40.95,15.30,-51.00,22.4
2026/05/04 21:57:54.08,IMU,835.45,91.80,-523.44,0.14,0.95,2.37,-41.10,15.15,-52.20,22.6
2026/05/04 21:57:54.19,IMU,843.75,89.36,-540.53,-2.31,-5.53,-2.48,-43.95,13.05,-48.90,22.5
2026/05/04 21:57:54.29,IMU,852.05,105.96,-522.95,0.34,0.11,2.69,-40.65,14.85,-51.00,22.5
2026/05/04 21:57:54.39,IMU,843.26,125.00,-518.55,-0.82,-1.56,6.34,-41.85,13.65,-48.30,22.6
2026/05/04 21:57:54.49,IMU,807.62,93.75,-568.85,0.49,-1.27,1.69,-39.90,15.30,-52.50,22.6
2026/05/04 21:57:54.59,IMU,850.59,107.42,-514.16,0.09,5.30,-0.11,-38.25,14.40,-52.20,22.4
2026/05/04 21:57:54.69,IMU,844.24,95.70,-561.04,1.66,-1.92,0.38,-39.60,15.15,-53.70,22.4
2026/05/04 21:57:54.79,IMU,851.07,94.73,-501.46,0.36,2.82,4.24,-39.45,14.10,-51.75,22.4
2026/05/04 21:57:54.91,IMU,861.33,159.67,-546.88,-1.41,6.95,-0.89,-39.60,14.40,-52.20,22.7
2026/05/04 21:57:55.01,IMU,824.22,85.45,-525.39,3.01,-1.55,-3.13,-40.65,16.50,-52.50,22.4
2026/05/04 21:57:55.11,IMU,830.57,83.98,-528.32,2.82,2.28,-1.10,-38.55,13.95,-52.20,22.5
2026/05/04 21:57:55.22,IMU,841.31,85.94,-546.39,4.82,-1.15,-3.82,-44.25,14.10,-47.70,22.8
2026/05/04 21:57:55.32,IMU,833.50,89.84,-528.81,3.94,3.09,-5.37,-39.00,15.15,-51.60,22.8
2026/05/04 21:57:55.42,IMU,822.75,80.57,-549.32,2.63,-3.78,-1.76,-40.05,15.45,-51.90,22.7
2026/05/04 21:57:55.53,IMU,814.94,98.63,-551.76,4.10,5.56,-4.46,-39.00,13.95,-52.65,22.6
2026/05/04 21:57:55.63,IMU,847.66,93.75,-528.81,0.51,5.21,-2.66,-40.80,15.45,-52.20,22.6
2026/05/04 21:57:55.73,IMU,858.89,98.14,-504.88,5.79,1.31,-2.63,-40.20,13.80,-52.50,22.4
2026/05/04 21:57:55.83,IMU,819.34,85.45,-538.57,2.05,4.90,0.31,-41.55,13.95,-51.15,22.6
2026/05/04 21:57:55.93,IMU,865.23,98.14,-523.93,0.69,7.26,2.24,-41.10,13.65,-50.10,22.6
2026/05/04 21:57:56.03,IMU,864.26,94.73,-524.90,-2.51,-1.97,-2.07,-40.95,14.55,-50.70,22.6
2026/05/04 21:57:56.13,IMU,854.00,104.98,-518.55,-0.61,-0.82,3.95,-41.70,13.80,-51.30,22.6
2026/05/04 21:57:56.24,IMU,848.63,121.09,-518.55,-0.31,2.79,2.43,-44.85,10.20,-46.80,22.7
2026/05/04 21:57:56.38,IMU,838.38,102.05,-549.32,-5.91,2.27,1.97,-41.70,13.80,-50.70,22.3
2026/05/04 21:57:56.48,IMU,846.68,113.28,-526.86,-0.50,2.80,1.27,-40.80,15.15,-51.90,22.6
2026/05/04 21:57:56.58,IMU,864.75,80.57,-510.25,1.18,1.02,2.13,-41.10,15.15,-51.90,22.8
2026/05/04 21:57:56.68,IMU,861.82,95.21,-507.32,2.18,-2.61,1.89,-46.50,11.85,-47.70,22.5
2026/05/04 21:57:56.78,IMU,822.75,121.58,-517.09,2.76,-3.42,-1.18,-41.55,14.70,-52.20,22.4
2026/05/04 21:57:56.88,IMU,836.43,100.10,-515.14,2.93,-3.34,1.11,-40.05,14.70,-50.85,22.6
2026/05/04 21:57:56.98,IMU,857.91,108.40,-518.55,0.67,6.21,-3.89,-40.35,14.70,-51.15,22.7
2026/05/04 21:57:57.08,IMU,842.77,98.14,-519.53,3.66,-2.99,-1.62,-40.95,13.05,-49.50,22.6
2026/05/04 21:57:57.18,IMU,856.45,86.43,-515.14,6.53,-1.56,0.81,-39.60,13.20,-51.15,22.8
2026/05/04 21:57:57.28,IMU,836.43,72.27,-520.51,6.77,0.20,-0.54,-44.40,12.45,-46.50,22.6
2026/05/04 21:57:57.38,IMU,859.86,89.84,-485.84,-2.45,5.45,-1.34,-40.65,13.05,-52.80,22.6
2026/05/04 21:57:57.50,IMU,845.21,103.03,-584.47,-6.88,-6.96,6.23,-41.55,14.40,-50.85,22.6
2026/05/04 21:57:57.60,IMU,820.80,90.82,-577.15,2.57,1.11,-3.85,-41.10,15.15,-51.15,22.6
2026/05/04 21:57:57.70,IMU,827.64,116.21,-520.51,4.44,9.05,-4.49,-40.95,14.85,-51.30,22.6
2026/05/04 21:57:57.81,IMU,833.01,112.79,-500.98,3.26,3.69,-5.34,-40.65,14.55,-50.70,22.6
2026/05/04 21:57:57.91,IMU,843.75,103.52,-499.02,3.04,3.06,-3.89,-42.00,13.80,-51.30,22.7
2026/05/04 21:57:58.01,IMU,857.42,97.17,-511.72,1.20,-0.99,-2.15,-41.55,13.65,-51.60,22.8
2026/05/04 21:57:58.13,IMU,857.42,83.01,-532.23,2.62,-4.45,7.08,-40.95,15.30,-51.75,22.4
2026/05/04 21:57:58.23,IMU,833.98,102.54,-530.76,0.21,-1.53,1.29,-40.80,14.40,-50.40,22.6
2026/05/04 21:57:58.33,IMU,847.66,104.98,-546.88,-2.98,-1.40,-3.32,-41.55,14.40,-51.60,22.7
2026/05/04 21:57:58.43,IMU,814.45,109.37,-555.18,-0.47,-0.81,-2.41,-39.90,13.05,-52.50,22.8
2026/05/04 21:57:58.53,IMU,835.94,114.26,-535.64,-6.63,6.53,-4.69,-41.10,14.70,-52.20,22.6
2026/05/04 21:57:58.63,IMU,824.71,106.93,-527.34,-0.87,-3.50,4.15,-40.05,14.40,-52.65,22.7
2026/05/04 21:57:58.73,IMU,842.77,104.98,-522.46,-7.42,7.41,1.19,-41.10,13.65,-52.20,22.6
2026/05/04 21:57:58.83,IMU,870.61,156.25,-538.57,-5.92,4.43,-1.18,-40.20,15.30,-51.30,22.8
2026/05/04 21:57:58.96,IMU,850.10,101.07,-536.62,1.51,-7.46,4.64,-40.65,14.55,-51.00,22.8
2026/05/04 21:57:59.06,IMU,864.75,126.95,-540.04,3.58,-1.02,8.54,-39.60,14.40,-50.40,22.6
2026/05/04 21:57:59.16,IMU,795.41,97.66,-499.51,0.90,-12.97,5.89,-40.35,14.40,-52.65,22.6
2026/05/04 21:57:59.26,IMU,862.30,149.90,-604.49,0.90,-1.31,-19.43,-39.15,15.30,-52.50,22.3
2026/05/04 21:57:59.36,IMU,917.48,151.86,-519.04,-1.02,-5.59,3.36,-39.90,15.30,-52.50,22.5
2026/05/04 21:57:59.46,IMU,822.75,149.90,-531.25,2.08,-13.70,8.86,-40.80,14.40,-51.15,22.8
2026/05/04 21:57:59.56,IMU,761.72,62.99,-578.13,8.57,-23.63,5.58,-43.35,13.20,-49.05,22.6
2026/05/04 21:57:59.66,IMU,848.63,93.75,-548.83,0.58,1.73,-4.72,-38.55,14.40,-51.90,22.8
2026/05/04 21:57:59.76,IMU,835.45,97.66,-509.28,2.24,8.62,-2.96,-40.65,12.60,-52.50,22.8
2026/05/04 21:57:59.86,IMU,857.42,123.05,-489.26,-0.65,22.72,-14.38,-41.10,13.65,-50.40,22.8
2026/05/04 21:57:59.96,IMU,853.03,115.72,-488.28,0.40,-3.12,-3.81,-41.55,14.40,-51.15,22.7
2026/05/04 21:58:00.08,IMU,948.24,142.09,-520.02,-9.50,13.85,-10.39,-42.75,15.75,-50.25,22.7
2026/05/04 21:58:00.18,IMU,876.46,158.69,-448.73,-10.08,13.05,-2.52,-44.40,16.65,-50.85,22.8
2026/05/04 21:58:00.28,IMU,819.34,130.37,-519.04,-18.18,-8.76,-4.83,-41.85,16.65,-51.15,22.8
2026/05/04 21:58:00.39,IMU,805.18,204.59,-500.98,7.82,15.10,-5.39,-41.85,17.40,-51.15,22.9
2026/05/04 21:58:00.49,IMU,900.39,250.49,-403.32,6.97,9.53,-11.96,-43.95,16.50,-49.50,22.7
2026/05/04 21:58:00.59,IMU,909.18,191.89,-424.32,9.25,-11.03,-0.60,-44.85,17.40,-50.85,22.8
2026/05/04 21:58:00.69,IMU,886.23,117.68,-467.29,17.47,-7.93,11.41,-43.95,16.80,-49.50,22.8
2026/05/04 21:58:00.79,IMU,840.82,140.63,-433.59,4.14,-8.16,2.69,-43.95,15.75,-50.70,22.8
2026/05/04 21:58:00.89,IMU,855.47,167.97,-499.02,3.59,-17.76,-4.08,-42.75,15.30,-51.75,22.9
2026/05/04 21:58:00.99,IMU,850.59,135.25,-515.14,13.11,-0.27,-5.20,-45.15,12.15,-46.50,22.6
2026/05/04 21:58:01.09,IMU,868.65,114.26,-444.34,15.52,-21.52,-3.27,-42.30,15.45,-49.35,22.6
2026/05/04 21:58:01.19,IMU,791.02,208.01,-712.40,14.69,-17.67,11.10,-38.70,12.60,-52.80,22.8
2026/05/04 21:58:01.29,IMU,674.32,47.36,-601.07,33.86,9.34,4.97,-39.45,13.05,-52.80,22.6
2026/05/04 21:58:01.39,IMU,829.10,75.20,-552.73,9.31,10.60,-14.23,-39.45,11.10,-51.00,22.6
2026/05/04 21:58:01.49,IMU,867.68,103.03,-614.26,10.00,8.93,-7.48,-40.80,9.75,-49.80,22.9
2026/05/04 21:58:01.59,IMU,820.80,86.91,-562.99,7.41,9.36,6.08,-40.65,8.10,-51.00,22.8
2026/05/04 21:58:01.69,IMU,813.96,66.89,-498.54,5.06,5.87,8.02,-42.00,8.40,-49.20,22.6
2026/05/04 21:58:01.81,IMU,827.15,-26.86,-551.27,-6.71,-20.76,-0.31,-40.95,8.10,-50.70,22.8
2026/05/04 21:58:01.91,IMU,907.23,125.49,-573.73,-15.69,14.98,0.53,-41.25,9.60,-48.90,22.8
2026/05/04 21:58:02.01,IMU,806.15,64.45,-565.92,-7.97,-14.98,12.02,-40.35,11.25,-50.10,22.8
2026/05/04 21:58:02.12,IMU,747.07,146.00,-615.23,-0.05,-12.14,-11.46,-40.05,10.50,-50.40,22.8
2026/05/04 21:58:02.21,IMU,763.67,83.98,-612.30,-12.05,1.21,1.40,-39.00,11.25,-52.20,22.6
2026/05/04 21:58:02.32,IMU,841.31,89.36,-544.92,-16.59,18.16,2.31,-39.45,11.85,-51.00,22.6
2026/05/04 21:58:02.42,IMU,777.34,82.52,-427.73,-22.21,8.87,24.65,-39.90,13.80,-51.00,22.8
2026/05/04 21:58:02.52,IMU,867.68,145.51,-649.41,-24.95,50.45,-4.97,-41.10,12.15,-51.15,22.8
2026/05/04 21:58:02.62,IMU,959.47,306.64,-421.39,-29.14,2.67,-4.79,-42.60,13.95,-49.35,22.8
2026/05/04 21:58:02.72,IMU,811.04,94.24,-560.55,-12.56,-28.47,22.09,-40.20,16.05,-51.75,22.8
2026/05/04 21:58:02.82,IMU,697.27,-3.42,-436.52,-3.24,-25.37,37.13,-39.00,15.15,-50.85,22.7
2026/05/04 21:58:02.92,IMU,843.26,-1.95,-528.81,-27.25,16.69,2.72,-39.00,15.15,-51.90,22.8
2026/05/04 21:58:03.02,IMU,820.31,82.52,-529.79,-22.69,-2.56,4.37,-39.00,18.15,-51.90,22.7
2026/05/04 21:58:03.12,IMU,955.08,131.35,-433.59,-14.80,21.66,5.50,-39.90,18.75,-51.75,22.8
2026/05/04 21:58:03.24,IMU,863.77,99.12,-449.22,7.70,-4.54,19.68,-39.30,18.90,-52.20,22.8
2026/05/04 21:58:03.34,IMU,851.07,96.68,-436.04,-2.02,2.59,13.02,-40.80,18.90,-52.65,22.6
2026/05/04 21:58:03.44,IMU,832.52,90.33,-461.43,3.17,9.09,0.90,-41.10,19.65,-51.90,22.7
2026/05/04 21:58:03.54,IMU,1018.07,380.37,-198.73,-5.15,-1.05,10.98,-41.10,20.10,-51.60,23.3
2026/05/04 21:58:03.64,IMU,848.63,-200.68,-704.10,12.90,8.24,-8.36,-41.55,18.15,-52.20,22.8
2026/05/04 21:58:03.74,IMU,921.88,-82.03,-367.68,59.48,49.37,-7.54,-43.05,16.65,-50.40,22.9
2026/05/04 21:58:03.84,IMU,916.02,-112.30,-354.98,54.43,-42.26,-19.24,-44.10,12.90,-48.30,22.8
2026/05/04 21:58:03.94,IMU,913.57,-29.79,-366.21,49.94,11.00,-26.73,-42.60,12.45,-49.80,22.8
2026/05/04 21:58:04.04,IMU,936.52,132.81,-205.08,46.21,-0.44,-28.55,-43.50,9.30,-47.70,22.8
2026/05/04 21:58:04.14,IMU,1035.16,-239.26,-588.38,35.17,38.42,-17.73,-47.70,4.80,-43.65,22.8
2026/05/04 21:58:04.24,IMU,709.47,-27.34,-243.16,28.94,6.16,3.89,-49.05,9.30,-42.75,22.8
2026/05/04 21:58:04.34,IMU,698.24,4.39,-333.98,49.84,40.94,33.37,-43.65,5.55,-46.20,22.9
2026/05/04 21:58:04.44,IMU,837.40,83.01,-634.77,-20.79,40.32,-24.04,-41.55,5.25,-45.75,22.6
2026/05/04 21:58:04.54,IMU,819.34,70.80,-463.38,5.59,21.11,-2.28,-43.65,6.00,-45.75,22.8
2026/05/04 21:58:04.64,IMU,868.16,69.34,-552.25,3.24,10.56,-8.98,-42.60,7.20,-45.00,22.8
2026/05/04 21:58:04.74,IMU,890.14,-37.60,-460.94,4.60,15.06,-1.92,-45.75,3.90,-42.75,22.6
2026/05/04 21:58:04.84,IMU,1000.49,27.34,-361.82,-12.05,0.98,8.79,-47.40,7.20,-43.20,22.9
2026/05/04 21:58:04.94,IMU,919.92,69.82,-460.94,-0.57,-2.02,10.69,-46.65,6.45,-45.00,22.7
2026/05/04 21:58:05.04,IMU,871.09,68.85,-429.20,-2.43,-15.90,3.55,-47.40,6.00,-43.20,22.7
2026/05/04 21:58:05.14,IMU,865.72,-13.67,-377.44,3.92,-0.28,-12.36,-44.85,6.75,-45.45,22.9
2026/05/04 21:58:05.26,IMU,1014.65,44.43,-393.07,12.29,-8.92,-7.62,-46.65,7.20,-43.65,22.4
2026/05/04 21:58:05.36,IMU,978.52,-41.50,-506.84,1.13,-21.29,-4.16,-44.70,6.90,-46.65,22.8
2026/05/04 21:58:05.46,IMU,887.21,83.01,-345.21,-8.92,12.33,12.85,-44.70,7.65,-44.85,22.8
2026/05/04 21:58:05.57,IMU,752.93,88.87,-430.18,-7.33,-7.91,19.49,-44.25,3.90,-42.75,22.8
2026/05/04 21:58:05.67,IMU,813.96,74.22,-478.03,4.52,6.86,-9.11,-42.00,6.15,-47.70,22.7
2026/05/04 21:58:05.77,IMU,802.25,172.36,-419.92,0.98,18.28,-34.57,-43.65,7.20,-48.00,23.0
2026/05/04 21:58:05.87,IMU,863.28,142.09,-656.25,0.25,6.76,-30.39,-42.45,8.40,-47.40,22.8
2026/05/04 21:58:05.97,IMU,949.22,78.12,-613.28,4.15,-26.19,-15.08,-43.20,8.10,-46.65,22.8
2026/05/04 21:58:06.07,IMU,908.20,161.62,-636.23,-4.85,-15.78,-14.11,-41.70,8.85,-48.15,22.8
2026/05/04 21:58:06.17,IMU,802.73,88.38,-560.55,14.66,-16.95,4.18,-41.55,8.25,-49.05,22.7
2026/05/04 21:58:06.27,IMU,796.88,25.88,-545.90,3.66,20.78,-3.07,-40.20,7.35,-48.45,22.8
2026/05/04 21:58:06.37,IMU,844.24,104.49,-593.75,-11.22,14.95,-3.63,-41.70,6.60,-48.45,22.6
2026/05/04 21:58:06.47,IMU,814.45,112.79,-577.15,3.57,-9.01,9.66,-43.95,6.60,-45.60,23.1
2026/05/04 21:58:06.57,IMU,848.14,148.44,-493.16,-2.48,2.95,-1.50,-42.30,6.75,-46.50,22.8
2026/05/04 21:58:06.68,IMU,809.57,122.56,-574.71,-1.24,7.12,-5.56,-44.10,7.95,-47.55,22.4
2026/05/04 21:58:06.78,IMU,833.50,96.68,-583.01,0.12,-11.12,-7.85,-41.25,6.60,-48.90,22.8
2026/05/04 21:58:06.88,IMU,835.45,146.48,-539.55,-0.48,-4.79,0.24,-42.60,8.70,-47.55,22.8
2026/05/04 21:58:06.98,IMU,788.09,78.61,-544.92,-2.30,3.15,5.33,-41.70,8.40,-48.15,22.7
2026/05/04 21:58:07.08,IMU,757.32,105.96,-662.11,0.75,-14.37,-0.32,-41.55,6.75,-48.30,22.8
2026/05/04 21:58:07.18,IMU,940.43,224.61,-629.88,7.24,-9.67,-11.40,-41.55,7.50,-49.80,22.6
2026/05/04 21:58:07.28,IMU,782.23,74.71,-577.64,6.11,-10.73,4.94,-41.25,8.40,-47.70,22.8
2026/05/04 21:58:07.38,IMU,729.00,81.54,-575.20,4.43,-1.66,5.50,-39.60,6.75,-49.35,22.7
2026/05/04 21:58:07.48,IMU,759.77,98.14,-595.70,-3.68,2.70,-8.96,-42.60,5.25,-45.45,22.8
2026/05/04 21:58:07.58,IMU,787.60,136.23,-641.60,-0.72,-5.44,-0.48,-43.50,7.65,-45.90,22.8
2026/05/04 21:58:07.68,IMU,799.80,149.90,-638.67,5.92,3.77,-2.18,-39.60,7.50,-49.05,22.8
2026/05/04 21:58:07.78,IMU,833.01,152.34,-601.07,6.35,20.17,-0.52,-39.90,7.65,-49.20,22.4
2026/05/04 21:58:07.88,IMU,771.97,118.65,-567.87,1.88,7.25,-6.21,-42.00,6.60,-47.70,23.1
2026/05/04 21:58:07.98,IMU,798.34,157.23,-583.50,5.88,13.27,4.27,-39.15,6.15,-48.15,22.8
2026/05/04 21:58:08.08,IMU,756.84,60.06,-588.87,5.32,-4.01,3.67,-41.55,6.00,-48.30,22.9
2026/05/04 21:58:08.18,IMU,806.15,122.07,-634.77,1.65,-1.04,0.75,-41.70,5.40,-48.45,22.8
2026/05/04 21:58:08.28,IMU,792.97,51.27,-619.14,1.04,6.37,-6.10,-40.80,6.75,-48.60,22.7
2026/05/04 21:58:08.38,IMU,796.88,63.48,-560.06,3.76,12.70,-1.85,-40.80,4.80,-46.50,22.9
2026/05/04 21:58:08.49,IMU,827.15,87.89,-558.11,-2.54,-0.98,6.23,-45.00,4.65,-43.35,22.8
2026/05/04 21:58:08.59,IMU,803.22,102.54,-604.98,0.56,0.02,2.33,-42.00,6.15,-46.65,22.8
2026/05/04 21:58:08.69,IMU,804.20,86.91,-583.01,-1.81,-2.28,6.25,-41.85,6.45,-45.75,23.1
2026/05/04 21:58:08.79,IMU,791.02,86.43,-586.43,0.43,3.00,4.78,-43.35,5.55,-48.30,22.8
2026/05/04 21:58:08.89,IMU,801.76,90.82,-597.17,0.20,-3.56,1.52,-41.85,5.55,-48.30,22.6
2026/05/04 21:58:08.99,IMU,796.88,87.89,-583.98,2.46,-1.60,4.16,-42.00,7.65,-47.40,22.9
2026/05/04 21:58:09.09,IMU,827.15,91.31,-585.94,0.31,3.70,1.96,-41.85,6.45,-48.00,22.8
2026/05/04 21:58:09.19,IMU,826.17,92.77,-596.68,2.84,11.18,-1.92,-42.00,5.85,-48.45,22.9
2026/05/04 21:58:09.29,IMU,815.92,75.68,-572.75,0.88,5.54,3.27,-42.45,6.15,-46.65,23.1
2026/05/04 21:58:09.39,IMU,823.73,77.15,-526.37,1.95,-5.97,1.76,-43.20,6.15,-45.60,22.8
2026/05/04 21:58:09.49,IMU,815.43,79.59,-590.82,2.40,1.85,-0.40,-43.05,5.55,-47.25,22.8
2026/05/04 21:58:09.59,IMU,826.66,86.43,-558.11,2.42,2.84,-0.10,-42.60,6.00,-44.70,22.8
2026/05/04 21:58:09.69,IMU,823.73,72.27,-545.41,2.16,-4.33,-0.29,-43.20,6.60,-46.35,22.8
2026/05/04 21:58:09.79,IMU,843.26,49.80,-539.55,-1.42,-2.54,1.36,-42.75,6.15,-47.40,22.8
2026/05/04 21:58:09.89,IMU,832.52,52.25,-602.05,-9.51,-7.60,2.03,-42.30,6.75,-47.55,22.8
2026/05/04 21:58:09.99,IMU,829.10,-10.74,-585.94,-11.31,0.46,5.69,-40.95,5.40,-47.40,22.9
2026/05/04 21:58:10.11,IMU,766.60,19.04,-622.07,-8.24,-16.35,31.63,-41.10,6.75,-48.00,22.9
2026/05/04 21:58:10.21,IMU,765.14,62.99,-571.29,-14.59,-51.92,30.97,-39.00,6.00,-47.55,22.8
2026/05/04 21:58:10.31,IMU,689.45,-60.06,-643.07,-15.20,-36.86,-1.61,-36.00,6.75,-50.85,22.9
2026/05/04 21:58:10.42,IMU,821.29,222.66,-761.72,-24.02,-60.60,-20.25,-32.70,8.70,-52.95,22.9
2026/05/04 21:58:10.51,IMU,566.41,164.06,-960.94,-5.08,-25.87,-34.58,-30.90,11.70,-55.20,22.8
2026/05/04 21:58:10.62,IMU,601.56,238.77,-790.53,0.43,-23.22,-22.94,-29.55,10.35,-54.60,22.8
2026/05/04 21:58:10.73,IMU,581.05,222.17,-851.07,-9.31,-14.29,-2.16,-29.40,11.25,-54.45,22.6
2026/05/04 21:58:10.83,IMU,603.03,292.48,-833.50,-1.95,-15.52,-7.95,-28.05,14.55,-56.40,22.8
2026/05/04 21:58:10.93,IMU,535.16,290.04,-840.33,1.84,7.58,1.88,-28.20,12.45,-54.75,22.8
2026/05/04 21:58:11.03,IMU,531.74,309.57,-773.93,12.50,24.41,7.58,-29.40,12.45,-54.45,22.9
2026/05/04 21:58:11.13,IMU,562.01,227.05,-755.37,9.20,19.77,-8.28,-31.35,11.10,-55.35,22.9
2026/05/04 21:58:11.23,IMU,643.55,249.02,-793.46,-6.85,11.88,-3.20,-31.35,11.10,-52.80,22.8
2026/05/04 21:58:11.33,IMU,602.54,236.82,-911.13,-2.33,2.04,-7.17,-29.85,12.30,-54.90,22.8
2026/05/04 21:58:11.43,IMU,676.27,229.49,-828.61,14.04,15.55,-1.37,-31.20,11.25,-53.40,22.6
2026/05/04 21:58:11.58,IMU,674.32,139.65,-754.39,11.30,19.66,2.66,-36.90,7.35,-47.70,22.8
2026/05/04 21:58:11.68,IMU,666.02,108.40,-751.46,2.69,18.41,12.15,-34.35,7.65,-52.50,22.8
2026/05/04 21:58:11.78,IMU,669.92,101.07,-733.89,0.44,0.81,6.95,-34.20,8.25,-51.60,22.8
2026/05/04 21:58:11.88,IMU,709.47,123.05,-711.91,2.57,3.60,5.08,-36.75,7.50,-51.15,22.8
2026/05/04 21:58:11.98,IMU,749.02,131.84,-645.02,7.83,3.25,2.20,-36.30,6.75,-51.90,22.9
2026/05/04 21:58:12.08,IMU,741.21,156.74,-726.07,-0.75,23.17,-7.04,-36.15,7.35,-49.95,22.4
2026/05/04 21:58:12.18,IMU,761.72,148.44,-693.85,5.17,13.29,-0.40,-39.15,5.10,-47.40,22.9
2026/05/04 21:58:12.28,IMU,709.47,142.09,-761.23,3.01,21.01,-5.40,-36.60,5.40,-49.50,22.9
2026/05/04 21:58:12.38,IMU,729.98,89.84,-724.61,10.87,15.28,-10.56,-37.50,4.50,-49.35,23.0
2026/05/04 21:58:12.48,IMU,790.04,67.38,-621.58,9.47,8.99,-6.71,-37.95,3.90,-48.15,22.9
2026/05/04 21:58:12.58,IMU,782.23,29.79,-665.04,4.92,-0.67,-0.15,-38.70,3.15,-49.20,22.8
2026/05/04 21:58:12.70,IMU,769.53,60.55,-613.28,0.40,13.03,0.61,-39.00,4.05,-47.55,22.8
2026/05/04 21:58:12.80,IMU,736.82,44.43,-654.30,-2.86,-4.37,0.95,-37.95,2.40,-48.45,22.7
2026/05/04 21:58:12.90,IMU,754.39,47.36,-650.88,-1.62,2.04,-1.83,-37.95,4.35,-49.20,22.7
2026/05/04 21:58:13.02,IMU,765.14,32.71,-665.53,-4.40,-8.31,-3.47,-38.25,3.30,-48.60,22.4
2026/05/04 21:58:13.12,IMU,757.32,60.55,-666.50,-2.50,-1.21,2.50,-37.80,4.05,-48.60,22.9
2026/05/04 21:58:13.22,IMU,718.26,27.83,-678.22,-0.09,-8.17,0.30,-38.40,3.90,-48.45,22.8
2026/05/04 21:58:13.33,IMU,748.05,52.73,-696.78,0.94,-0.95,-1.53,-37.80,3.75,-48.60,22.6
2026/05/04 21:58:13.43,IMU,740.23,54.69,-670.41,2.92,-0.49,-8.35,-36.30,4.50,-48.30,22.6
2026/05/04 21:58:13.53,IMU,748.54,67.38,-656.74,4.69,2.21,-5.35,-37.50,3.30,-49.80,22.6
2026/05/04 21:58:13.63,IMU,780.76,91.80,-689.45,2.25,9.51,-4.69,-41.25,1.65,-44.10,22.8
2026/05/04 21:58:13.73,IMU,759.77,55.66,-676.76,-0.32,2.10,1.72,-38.25,3.75,-48.60,22.8
2026/05/04 21:58:13.83,IMU,746.09,71.78,-670.41,-0.69,1.08,4.59,-37.95,4.35,-48.45,22.6
2026/05/04 21:58:13.93,IMU,724.12,71.78,-724.61,5.27,-3.23,0.87,-36.60,3.90,-48.45,22.8
2026/05/04 21:58:14.03,IMU,744.14,1.46,-668.46,8.32,-0.92,-0.63,-38.70,2.70,-47.10,22.9
2026/05/04 21:58:14.13,IMU,720.21,22.95,-680.18,0.31,-0.01,-8.98,-37.95,3.15,-49.20,22.9
2026/05/04 21:58:14.23,IMU,749.02,51.76,-651.86,0.15,2.47,1.63,-38.25,3.75,-48.00,22.8
2026/05/04 21:58:14.33,IMU,720.21,54.20,-691.89,-2.56,-3.62,-2.45,-39.00,2.25,-47.55,22.6
2026/05/04 21:58:14.45,IMU,751.46,70.80,-688.96,-3.87,4.95,-5.62,-38.40,2.40,-48.90,22.6
2026/05/04 21:58:14.55,IMU,707.52,51.76,-691.89,-1.40,-3.43,-0.63,-37.05,3.75,-48.30,22.8
2026/05/04 21:58:14.65,IMU,729.98,49.32,-710.45,2.02,-1.40,-3.60,-40.35,2.25,-45.45,22.9
2026/05/04 21:58:14.75,IMU,717.29,50.29,-689.94,2.90,-2.08,6.71,-37.20,3.60,-49.50,22.8
2026/05/04 21:58:14.85,IMU,718.75,41.02,-680.66,1.58,-3.76,2.51,-36.60,3.90,-47.70,22.8
2026/05/04 21:58:14.95,IMU,717.77,59.08,-678.71,0.98,4.23,-0.32,-36.75,4.05,-49.05,22.7
2026/05/04 21:58:15.05,IMU,735.35,63.48,-697.27,-2.68,0.76,0.08,-37.80,3.30,-44.85,22.9
2026/05/04 21:58:15.15,IMU,728.52,50.29,-708.50,3.72,1.95,-1.48,-36.75,3.75,-48.00,22.6
2026/05/04 21:58:15.25,IMU,729.49,50.78,-676.27,-0.24,-2.18,-0.27,-37.50,2.55,-48.30,22.9
2026/05/04 21:58:15.35,IMU,736.33,-1.46,-717.77,-3.04,1.56,5.42,-37.05,2.25,-49.05,22.8
2026/05/04 21:58:15.45,IMU,592.29,5.37,-812.01,3.62,0.63,15.03,-36.90,3.60,-48.90,22.9
2026/05/04 21:58:15.55,IMU,714.84,-79.10,-694.34,4.36,12.25,-19.29,-37.95,3.90,-48.90,22.9
2026/05/04 21:58:15.67,IMU,727.54,4.39,-675.29,8.95,-22.70,-17.21,-41.25,1.65,-44.55,22.8
2026/05/04 21:58:15.77,IMU,758.30,151.86,-696.78,13.24,-8.31,-17.44,-37.80,2.55,-49.80,22.9
2026/05/04 21:58:15.87,IMU,678.22,64.45,-675.29,19.27,-6.29,-20.06,-38.25,2.25,-48.00,22.8
2026/05/04 21:58:15.97,IMU,725.59,66.89,-773.44,9.73,-22.67,-17.59,-37.65,3.90,-49.20,22.9
2026/05/04 21:58:16.07,IMU,756.35,114.75,-727.54,-4.73,-8.52,-8.24,-37.50,4.80,-49.05,22.9
2026/05/04 21:58:16.17,IMU,665.04,141.60,-752.93,-5.29,-19.44,9.04,-36.30,3.00,-50.40,22.8
2026/05/04 21:58:16.27,IMU,613.28,143.07,-779.79,-5.95,-3.01,1.73,-34.35,4.65,-48.90,22.9
2026/05/04 21:58:16.37,IMU,600.10,109.37,-772.95,2.53,-0.09,4.11,-34.35,3.15,-50.70,22.9
2026/05/04 21:58:16.47,IMU,657.23,140.63,-764.16,-6.71,12.97,-2.06,-38.40,1.65,-43.80,22.8
2026/05/04 21:58:16.57,IMU,707.03,164.06,-764.16,-9.05,10.69,2.39,-35.25,4.05,-49.80,22.9
2026/05/04 21:58:16.68,IMU,716.80,229.00,-854.49,-5.76,44.48,-12.12,-38.25,3.30,-46.80,22.8
2026/05/04 21:58:16.78,IMU,665.04,264.16,-767.09,8.73,-25.47,-4.83,-35.55,5.25,-50.40,22.9
2026/05/04 21:58:16.88,IMU,624.02,108.40,-797.36,-4.91,-25.40,-32.56,-35.25,5.25,-50.40,22.7
2026/05/04 21:58:16.98,IMU,510.25,50.29,-805.66,-11.78,7.40,-10.83,-35.55,4.80,-50.40,22.8
2026/05/04 21:58:17.08,IMU,663.57,154.30,-697.27,-20.00,55.96,-17.52,-36.15,8.40,-50.25,23.1
2026/05/04 21:58:17.18,IMU,653.81,193.36,-804.69,-9.02,-13.51,7.99,-39.60,9.45,-49.05,23.1
2026/05/04 21:58:17.30,IMU,675.29,190.43,-762.21,-8.97,-8.60,8.35,-37.80,9.75,-50.40,22.8
2026/05/04 21:58:17.39,IMU,672.36,257.81,-710.94,-12.10,-13.75,15.81,-37.50,9.45,-51.90,22.9
2026/05/04 21:58:17.49,IMU,620.12,219.73,-811.52,-5.30,-7.24,21.44,-35.55,8.25,-51.60,22.8
2026/05/04 21:58:17.60,IMU,647.46,115.23,-758.30,3.37,-9.92,23.88,-34.50,9.75,-52.20,22.8
2026/05/04 21:58:17.70,IMU,626.95,113.77,-812.01,13.88,-19.37,15.34,-36.90,5.10,-48.15,22.9
2026/05/04 21:58:17.80,IMU,622.07,214.36,-739.26,-5.39,2.67,16.91,-33.45,6.75,-52.20,22.9
2026/05/04 21:58:17.90,IMU,593.75,118.16,-751.46,11.47,-37.60,-4.37,-31.80,6.90,-53.55,22.8
2026/05/04 21:58:18.00,IMU,525.39,42.97,-848.14,-6.14,-24.19,8.91,-28.50,7.35,-52.80,23.0
2026/05/04 21:58:18.10,IMU,509.28,120.61,-846.68,6.34,0.14,-11.85,-27.00,6.60,-53.10,22.8
2026/05/04 21:58:18.20,IMU,462.40,144.04,-876.95,6.53,0.10,-27.53,-30.90,4.50,-50.40,22.9
2026/05/04 21:58:18.30,IMU,501.46,92.77,-861.82,-8.29,30.57,-26.91,-29.55,6.60,-53.10,23.0
2026/05/04 21:58:18.40,IMU,630.37,130.37,-856.93,-11.19,15.17,-10.21,-31.05,6.60,-51.30,22.8
2026/05/04 21:58:18.50,IMU,652.34,148.44,-752.93,-5.08,-1.05,-6.35,-33.60,8.40,-53.10,22.9
2026/05/04 21:58:18.61,IMU,549.80,176.27,-833.01,4.92,5.95,-1.90,-30.30,10.05,-53.10,22.8
2026/05/04 21:58:18.76,IMU,571.29,187.01,-833.50,-11.60,7.50,6.30,-31.95,9.75,-53.40,22.9
2026/05/04 21:58:18.86,IMU,624.51,255.37,-789.55,-18.76,8.79,16.71,-34.35,11.10,-52.80,22.9
2026/05/04 21:58:18.96,IMU,639.16,262.70,-841.80,-12.79,1.91,21.60,-33.90,10.80,-53.55,23.0
2026/05/04 21:58:19.06,IMU,658.69,207.03,-791.02,-18.88,29.25,1.80,-34.20,10.20,-53.40,23.0
2026/05/04 21:58:19.16,IMU,632.81,211.91,-778.32,5.27,13.92,48.11,-33.30,10.05,-52.50,22.9
2026/05/04 21:58:19.26,IMU,662.60,93.75,-760.25,8.82,-26.92,9.08,-31.20,9.00,-51.60,22.7
2026/05/04 21:58:19.36,IMU,665.53,30.27,-822.75,9.76,10.51,13.46,-33.75,4.05,-49.05,22.8
2026/05/04 21:58:19.46,IMU,687.50,121.09,-715.33,-17.40,7.08,-17.36,-31.20,8.70,-52.95,22.9
2026/05/04 21:58:19.56,IMU,669.43,123.54,-732.91,8.76,-15.42,6.71,-31.50,7.95,-51.90,22.9
2026/05/04 21:58:19.66,IMU,662.11,211.91,-683.11,1.50,0.00,0.67,-30.15,8.70,-52.95,22.8
2026/05/04 21:58:19.76,IMU,625.00,163.57,-769.53,4.51,-14.76,1.47,-31.20,8.25,-52.20,22.9
2026/05/04 21:58:19.88,IMU,591.31,157.71,-831.54,5.60,9.05,-8.09,-31.95,9.00,-53.40,22.8
2026/05/04 21:58:19.98,IMU,621.58,134.28,-778.32,12.34,-0.73,-11.22,-30.60,7.65,-52.80,22.9
2026/05/04 21:58:20.08,IMU,611.33,131.35,-839.84,10.14,-1.28,-9.87,-31.35,8.10,-51.75,22.9
2026/05/04 21:58:20.19,IMU,628.91,134.28,-801.76,18.76,-3.50,-6.96,-31.50,8.25,-51.15,22.8
2026/05/04 21:58:20.29,IMU,624.02,135.74,-777.34,11.11,-0.98,-11.95,-31.05,7.65,-51.75,23.0
2026/05/04 21:58:20.39,IMU,605.47,16.11,-783.20,34.01,4.66,0.89,-31.80,6.15,-50.70,23.1
2026/05/04 21:58:20.49,IMU,584.47,142.58,-787.60,5.56,-5.92,-1.89,-29.70,6.75,-50.85,22.8
2026/05/04 21:58:20.59,IMU,583.98,119.63,-754.88,-1.06,63.12,28.21,-32.25,6.75,-50.85,22.6
2026/05/04 21:58:20.69,IMU,640.14,145.51,-730.96,-2.64,20.44,-5.67,-33.75,6.45,-51.60,23.0
2026/05/04 21:58:20.79,IMU,658.69,169.92,-754.88,2.17,1.44,-1.47,-36.00,5.25,-48.00,23.2
2026/05/04 21:58:20.89,IMU,632.81,97.66,-766.60,3.15,10.79,-4.42,-34.20,6.75,-50.85,22.8
2026/05/04 21:58:20.99,IMU,655.27,154.79,-772.46,3.61,3.40,-4.89,-34.50,5.55,-50.40,23.1
2026/05/04 21:58:21.09,IMU,649.41,111.82,-752.93,11.11,4.10,-7.59,-35.25,6.00,-49.35,23.1
2026/05/04 21:58:21.19,IMU,674.32,128.42,-741.21,9.73,-5.92,-0.33,-35.25,4.50,-49.35,22.9
2026/05/04 21:58:21.31,IMU,650.39,118.16,-769.04,4.34,0.28,-2.85,-35.55,4.05,-48.60,23.1
2026/05/04 21:58:21.41,IMU,659.18,113.77,-750.00,5.28,3.08,-2.69,-36.00,4.05,-50.10,23.1
2026/05/04 21:58:21.51,IMU,638.18,87.89,-748.54,6.61,2.92,-1.19,-35.25,4.80,-49.35,23.0
2026/05/04 21:58:21.62,IMU,648.44,94.24,-755.37,4.22,0.73,0.69,-37.05,4.05,-49.80,23.2
2026/05/04 21:58:21.72,IMU,675.29,110.35,-747.07,0.93,1.64,0.08,-35.10,3.90,-49.20,23.2
2026/05/04 21:58:21.83,IMU,620.61,54.20,-733.40,-0.56,4.28,-2.10,-39.30,1.05,-45.45,23.2
2026/05/04 21:58:21.93,IMU,648.44,129.39,-733.40,8.95,1.61,0.53,-36.15,4.65,-49.50,23.1
2026/05/04 21:58:22.03,IMU,629.39,33.69,-762.70,18.54,-11.75,19.20,-35.10,3.90,-47.40,23.1
2026/05/04 21:58:22.13,IMU,597.66,131.84,-843.26,33.82,-27.66,35.24,-31.50,0.75,-48.15,23.2
2026/05/04 21:58:22.23,IMU,685.06,67.87,-729.49,-4.10,21.67,-22.97,-34.35,-2.70,-45.60,22.8
2026/05/04 21:58:22.33,IMU,638.67,37.11,-809.08,-9.66,27.30,-27.85,-32.10,-1.50,-48.00,23.1
2026/05/04 21:58:22.43,IMU,652.34,36.62,-780.76,-13.48,31.76,-10.64,-34.20,1.80,-47.55,23.1
2026/05/04 21:58:22.53,IMU,661.13,12.21,-782.23,-7.53,22.85,2.69,-36.75,1.50,-46.50,23.1
2026/05/04 21:58:22.63,IMU,702.64,-33.69,-736.33,3.86,45.17,10.75,-38.70,0.15,-47.10,22.9
2026/05/04 21:58:22.76,IMU,761.23,-43.95,-750.49,-21.66,15.89,22.15,-37.65,1.20,-44.85,23.2
2026/05/04 21:58:22.86,IMU,779.79,32.23,-694.82,-34.59,13.54,33.96,-41.85,0.00,-42.15,23.1
2026/05/04 21:58:22.96,IMU,779.79,-16.60,-601.07,-36.80,-33.43,17.03,-37.05,2.25,-47.25,23.2
2026/05/04 21:58:23.06,IMU,751.95,55.18,-570.31,-45.95,-3.56,23.85,-38.40,3.15,-45.15,23.0
2026/05/04 21:58:23.16,IMU,763.67,4.88,-623.05,-28.67,7.34,9.15,-33.30,6.90,-51.30,22.9
2026/05/04 21:58:23.26,IMU,789.55,58.59,-609.86,-16.74,-0.94,3.24,-34.35,7.35,-51.00,22.9
2026/05/04 21:58:23.36,IMU,752.93,83.01,-687.99,-8.69,1.27,-4.83,-34.50,9.75,-52.20,23.2
2026/05/04 21:58:23.46,IMU,705.08,71.78,-672.36,-3.56,0.02,-10.07,-33.45,9.75,-52.65,23.1
2026/05/04 21:58:23.56,IMU,721.19,57.13,-634.77,7.05,-9.55,-5.14,-34.20,9.75,-51.60,22.9
2026/05/04 21:58:23.66,IMU,740.72,102.05,-736.33,3.23,-15.78,-8.49,-32.25,9.75,-52.95,23.1
2026/05/04 21:58:23.76,IMU,667.97,97.17,-689.45,11.56,-7.60,-9.56,-31.35,10.05,-53.85,23.1
2026/05/04 21:58:23.87,IMU,653.32,49.80,-739.26,10.91,-13.29,-19.47,-35.40,6.60,-49.20,22.8
2026/05/04 21:58:23.97,IMU,719.73,104.49,-717.29,9.61,-0.26,-14.41,-32.25,7.95,-50.85,23.1
2026/05/04 21:58:24.07,IMU,671.39,95.70,-729.98,11.91,-3.50,-13.84,-31.50,9.00,-51.90,23.1
2026/05/04 21:58:24.17,IMU,645.51,102.05,-735.84,11.66,-5.68,-5.92,-32.10,7.35,-53.10,23.1
2026/05/04 21:58:24.27,IMU,669.92,104.00,-752.93,4.92,-5.48,-6.68,-33.00,6.45,-52.95,22.8
2026/05/04 21:58:24.37,IMU,660.16,95.21,-789.06,8.38,-0.98,1.67,-31.35,6.90,-52.50,22.8
2026/05/04 21:58:24.48,IMU,639.16,95.70,-715.82,8.55,12.19,-13.71,-32.10,5.10,-52.80,22.9
2026/05/04 21:58:24.58,IMU,618.16,-5.37,-729.00,16.95,13.41,-0.27,-32.25,6.45,-51.90,23.1
2026/05/04 21:58:24.68,IMU,561.04,80.57,-743.65,-5.41,-2.56,5.61,-32.85,6.15,-52.50,22.9
2026/05/04 21:58:24.78,IMU,621.09,111.33,-849.12,-10.76,0.08,11.71,-32.25,6.75,-50.85,23.1
2026/05/04 21:58:24.89,IMU,687.01,115.72,-767.58,-13.01,37.53,9.79,-35.55,3.30,-47.55,23.1
2026/05/04 21:58:24.99,IMU,721.68,72.75,-740.72,-29.95,-3.96,13.95,-33.45,7.95,-52.20,23.1
2026/05/04 21:58:25.09,IMU,692.38,186.04,-703.13,-21.23,-6.80,16.47,-32.55,9.60,-50.70,23.1
2026/05/04 21:58:25.19,IMU,640.14,90.33,-747.56,-12.92,-0.53,18.41,-31.35,10.05,-54.30,23.2
2026/05/04 21:58:25.29,IMU,715.82,168.95,-681.64,-19.34,15.28,10.89,-31.20,11.70,-54.00,23.1
2026/05/04 21:58:25.39,IMU,695.31,94.73,-707.52,-9.96,-13.70,20.50,-30.90,13.20,-55.80,23.1
2026/05/04 21:58:25.49,IMU,753.91,153.81,-649.41,-11.99,12.53,15.99,-31.35,12.60,-55.35,23.1
2026/05/04 21:58:25.59,IMU,721.19,134.28,-709.96,0.97,-0.05,9.15,-28.80,13.35,-56.40,23.1
2026/05/04 21:58:25.69,IMU,729.00,109.37,-736.82,12.53,11.32,-14.13,-30.30,13.80,-55.65,23.1
2026/05/04 21:58:25.79,IMU,736.82,207.03,-662.60,6.89,25.31,-26.05,-33.45,11.70,-53.40,23.1
2026/05/04 21:58:25.92,IMU,639.65,134.28,-748.54,16.11,-14.02,-8.04,-37.65,8.85,-49.95,22.9
2026/05/04 21:58:26.02,IMU,682.13,141.60,-704.59,19.10,13.17,-11.05,-31.95,11.25,-53.70,23.1
2026/05/04 21:58:26.12,IMU,687.99,126.46,-714.36,14.26,17.85,-17.21,-33.00,10.50,-53.40,22.8
2026/05/04 21:58:26.23,IMU,724.61,132.81,-689.45,10.44,0.25,-5.27,-35.55,9.75,-52.95,23.1
2026/05/04 21:58:26.33,IMU,717.29,106.45,-689.45,9.53,5.10,-10.04,-35.55,9.45,-53.40,23.0
2026/05/04 21:58:26.43,IMU,763.67,111.33,-650.88,0.87,11.20,-11.18,-36.00,8.70,-52.20,22.9
2026/05/04 21:58:26.53,IMU,748.54,122.56,-675.29,0.92,0.27,-1.76,-35.40,8.85,-51.30,23.3
2026/05/04 21:58:26.63,IMU,732.91,137.70,-678.71,-3.23,-1.98,0.95,-36.00,8.25,-51.15,23.1
2026/05/04 21:58:26.73,IMU,718.75,109.37,-700.68,3.73,-1.70,8.85,-36.90,8.85,-51.30,23.1
2026/05/04 21:58:26.83,IMU,748.54,116.21,-692.87,4.57,-1.79,8.89,-36.15,8.10,-52.05,23.1
2026/05/04 21:58:26.94,IMU,755.37,96.19,-721.68,3.70,-0.27,10.41,-39.45,4.65,-47.70,23.1
2026/05/04 21:58:27.04,IMU,713.38,56.64,-669.43,6.12,1.44,11.32,-34.50,8.25,-52.65,23.2
