Timestamp,Sensor,AccX,AccY,AccZ,GyrX,GyrY,GyrZ,MagX,MagY,MagZ,Temp
2026/05/04 21:47:42.33,IMU,329.10,757.81,519.53,0.85,0.76,1.17,-57.00,40.50,10.05,26.8
2026/05/04 21:47:42.43,IMU,323.73,764.16,540.04,0.09,-1.49,-1.32,-52.35,41.85,5.10,26.9
2026/05/04 21:47:42.53,IMU,321.78,749.51,541.02,3.23,0.40,1.56,-54.15,41.10,7.65,26.6
2026/05/04 21:47:42.63,IMU,324.71,744.63,526.37,-2.13,0.21,0.15,-53.70,43.20,5.70,26.9
2026/05/04 21:47:42.73,IMU,329.10,757.32,537.60,-1.42,2.04,-0.86,-53.85,43.05,6.60,26.6
2026/05/04 21:47:42.83,IMU,314.45,768.55,536.13,1.46,1.96,-0.60,-52.20,43.20,7.50,26.7
2026/05/04 21:47:42.93,IMU,323.73,753.91,529.30,-1.51,5.19,-2.51,-54.00,42.45,6.45,26.5
2026/05/04 21:47:43.03,IMU,296.39,763.18,552.25,0.91,-0.02,0.92,-52.20,41.70,6.00,26.7
2026/05/04 21:47:43.05,IMU,306.15,757.81,542.48,-2.03,-2.89,-1.03,-52.95,42.00,6.00,26.8
2026/05/04 21:47:43.15,IMU,302.73,761.23,525.88,0.76,-1.10,-1.22,-53.40,41.55,7.35,26.8
2026/05/04 21:47:43.25,IMU,304.69,753.42,542.48,0.08,0.27,-0.94,-52.50,41.70,6.45,26.9
2026/05/04 21:47:43.35,IMU,295.41,750.49,550.78,-0.18,-0.50,0.85,-53.40,41.55,7.35,26.6
2026/05/04 21:47:43.45,IMU,297.85,762.21,547.36,-2.48,-0.32,1.53,-51.75,42.90,7.50,26.7
2026/05/04 21:47:43.55,IMU,295.41,767.09,548.83,1.16,-1.42,1.28,-52.50,42.90,6.75,26.8
2026/05/04 21:47:43.65,IMU,285.16,770.51,544.43,0.28,1.44,-0.26,-52.05,42.30,6.60,26.4
2026/05/04 21:47:43.76,IMU,303.71,763.67,544.92,1.28,2.27,1.54,-53.10,41.85,7.35,26.6
2026/05/04 21:47:43.86,IMU,306.64,751.46,490.72,11.10,-0.68,3.08,-53.40,41.85,6.90,26.8
2026/05/04 21:47:43.96,IMU,289.06,792.48,532.23,2.05,1.67,-1.27,-53.25,42.45,6.00,26.8
2026/05/04 21:47:44.06,IMU,281.25,763.18,538.09,4.15,2.69,-2.27,-52.80,43.80,6.90,26.8
2026/05/04 21:47:44.16,IMU,276.86,761.23,551.27,0.33,-0.65,0.08,-52.80,43.35,6.30,26.8
2026/05/04 21:47:44.26,IMU,289.55,759.28,533.69,-1.44,0.34,2.53,-52.95,42.45,7.20,26.8
2026/05/04 21:47:44.36,IMU,292.97,766.11,537.11,0.87,-0.37,2.73,-52.05,42.60,6.60,26.8
2026/05/04 21:47:44.46,IMU,293.46,768.55,522.95,-0.69,4.82,-4.21,-52.80,41.85,6.90,26.8
2026/05/04 21:47:44.56,IMU,297.36,750.49,525.88,-3.85,0.47,-0.70,-54.15,43.05,7.35,26.8
2026/05/04 21:47:44.66,IMU,291.02,753.91,551.76,0.37,-1.50,-0.21,-52.35,42.60,9.15,26.7
2026/05/04 21:47:44.76,IMU,298.34,765.63,536.62,0.37,2.27,-0.95,-53.25,42.00,6.75,26.9
2026/05/04 21:47:44.86,IMU,289.06,768.07,543.95,0.85,0.81,-0.47,-52.20,40.95,9.00,26.8
2026/05/04 21:47:44.96,IMU,284.18,779.79,534.67,-1.15,-1.76,-0.66,-52.35,41.10,8.40,26.8
2026/05/04 21:47:45.06,IMU,276.37,762.70,569.82,0.21,2.56,1.04,-52.05,43.80,8.10,26.6
2026/05/04 21:47:45.16,IMU,294.43,740.72,555.66,0.34,-0.49,0.64,-51.75,42.90,9.30,26.9
2026/05/04 21:47:45.26,IMU,283.69,778.81,529.79,-0.85,-0.18,0.31,-52.35,43.35,8.10,26.9
2026/05/04 21:47:45.36,IMU,281.74,772.95,566.41,-1.05,2.92,-1.39,-51.45,43.95,8.25,26.8
2026/05/04 21:47:45.46,IMU,273.44,775.39,547.36,2.03,-1.38,-2.58,-51.75,42.90,7.80,27.0
2026/05/04 21:47:45.56,IMU,283.20,766.11,552.73,-1.17,0.85,-4.02,-52.80,42.60,7.35,26.6
2026/05/04 21:47:45.66,IMU,297.85,761.23,542.48,-2.25,0.38,-3.31,-52.35,42.60,8.10,26.9
2026/05/04 21:47:45.76,IMU,282.71,756.35,533.69,-1.04,3.69,0.89,-53.40,42.60,7.65,26.6
2026/05/04 21:47:45.86,IMU,286.62,757.81,555.18,-2.55,-0.31,4.18,-53.25,42.90,7.80,26.8
2026/05/04 21:47:45.96,IMU,272.46,765.63,545.41,0.64,-0.05,-0.05,-54.15,42.30,8.70,26.8
2026/05/04 21:47:46.06,IMU,282.71,766.11,541.02,-3.09,2.24,-2.87,-52.05,41.85,6.90,26.7
2026/05/04 21:47:46.16,IMU,279.79,755.37,562.01,0.79,-0.73,0.55,-52.05,43.05,8.40,26.8
2026/05/04 21:47:46.26,IMU,263.67,749.02,558.11,-0.86,3.08,2.04,-52.20,42.90,8.25,27.1
2026/05/04 21:47:46.36,IMU,281.25,766.11,557.13,0.32,0.78,-0.30,-51.75,40.95,8.55,26.8
2026/05/04 21:47:46.46,IMU,263.67,759.77,549.32,0.95,1.19,4.08,-51.30,41.85,8.10,26.8
2026/05/04 21:47:46.56,IMU,273.93,775.88,576.17,-0.63,-1.16,0.79,-52.50,42.90,9.00,27.0
2026/05/04 21:47:46.66,IMU,277.34,772.95,544.92,-0.03,4.83,-0.31,-51.30,43.80,8.70,26.7
2026/05/04 21:47:46.76,IMU,275.88,759.28,546.88,1.78,0.48,2.35,-51.75,42.45,8.25,26.7
2026/05/04 21:47:46.88,IMU,271.97,762.70,577.15,1.00,-2.54,-0.76,-52.05,41.85,8.40,26.9
2026/05/04 21:47:46.98,IMU,274.41,759.77,529.30,0.56,-0.24,-2.12,-53.10,42.30,8.40,27.0
2026/05/04 21:47:47.08,IMU,275.39,766.11,552.73,-1.66,-1.21,-1.11,-52.05,43.05,9.15,27.0
2026/05/04 21:47:47.18,IMU,280.76,756.84,541.50,1.23,-0.66,2.66,-52.50,43.95,9.30,27.0
2026/05/04 21:47:47.28,IMU,279.79,757.32,563.96,-3.83,0.62,0.57,-52.20,42.45,9.30,27.1
2026/05/04 21:47:47.38,IMU,269.53,766.11,562.01,-1.31,2.98,0.06,-52.35,42.30,9.15,26.7
2026/05/04 21:47:47.48,IMU,272.95,765.14,530.76,0.82,-0.94,-1.38,-53.10,43.05,8.10,27.0
2026/05/04 21:47:47.58,IMU,270.02,757.32,563.48,0.58,-0.69,2.79,-51.45,43.20,8.25,27.1
2026/05/04 21:47:47.68,IMU,281.74,748.54,543.95,-4.64,5.03,-1.91,-52.05,43.35,9.45,26.7
2026/05/04 21:47:47.78,IMU,274.41,758.30,554.20,2.21,-4.77,0.73,-52.05,42.00,6.45,27.1
2026/05/04 21:47:47.88,IMU,291.99,741.70,585.94,-0.21,-2.12,2.38,-52.95,40.95,7.80,26.7
2026/05/04 21:47:47.98,IMU,263.67,758.30,580.08,0.79,0.31,0.43,-52.50,42.00,8.25,26.9
2026/05/04 21:47:48.08,IMU,275.39,743.16,570.31,-1.05,3.34,-0.07,-51.00,42.90,9.30,26.7
2026/05/04 21:47:48.18,IMU,276.37,752.44,562.99,-1.79,-0.57,-0.79,-52.05,42.60,9.90,26.9
2026/05/04 21:47:48.29,IMU,279.30,771.48,559.57,0.02,-0.47,-0.92,-52.20,42.45,8.55,26.9
2026/05/04 21:47:48.39,IMU,271.97,756.84,569.34,0.21,-1.80,0.93,-51.45,40.95,10.35,27.1
2026/05/04 21:47:48.49,IMU,281.74,758.30,550.29,-1.92,0.86,1.40,-54.15,43.35,8.70,27.0
2026/05/04 21:47:48.59,IMU,272.95,751.95,556.64,-0.01,5.13,1.36,-52.50,42.90,8.25,26.8
2026/05/04 21:47:48.69,IMU,274.90,760.74,559.08,1.08,-3.18,0.52,-53.25,42.00,7.50,27.1
2026/05/04 21:47:48.79,IMU,275.88,764.65,553.71,0.10,-0.45,-0.58,-51.75,43.20,8.55,27.2
2026/05/04 21:47:48.89,IMU,276.37,750.98,570.31,2.83,1.24,-0.15,-52.80,42.30,8.40,26.9
2026/05/04 21:47:48.99,IMU,291.99,782.23,539.06,0.74,1.33,-1.33,-52.95,42.00,7.80,26.8
2026/05/04 21:47:49.09,IMU,265.14,757.81,522.95,-2.14,7.93,0.89,-52.80,42.60,8.70,26.9
2026/05/04 21:47:49.19,IMU,270.02,760.74,536.62,1.92,2.10,2.41,-53.70,42.45,8.25,27.0
2026/05/04 21:47:49.29,IMU,278.81,768.07,548.34,1.41,-0.31,-1.06,-51.00,42.45,8.25,27.1
2026/05/04 21:47:49.39,IMU,262.21,764.16,581.54,-0.29,-1.20,0.40,-56.10,40.05,12.45,27.0
2026/05/04 21:47:49.49,IMU,262.21,742.19,549.80,-1.33,0.27,-1.33,-51.45,41.25,9.00,27.0
2026/05/04 21:47:49.59,IMU,269.04,763.67,566.89,-1.20,-0.33,0.40,-51.60,42.60,9.15,27.1
2026/05/04 21:47:49.69,IMU,267.09,756.84,552.73,-0.58,1.16,-1.31,-52.05,41.85,8.10,27.2
2026/05/04 21:47:49.79,IMU,264.16,743.16,576.66,-0.52,-1.18,1.72,-50.85,42.30,7.65,26.8
2026/05/04 21:47:49.89,IMU,276.37,755.86,593.75,-1.37,0.95,0.50,-53.25,40.50,8.55,26.7
2026/05/04 21:47:49.99,IMU,270.02,741.70,570.80,1.27,-3.56,-0.58,-52.20,43.65,9.30,26.9
2026/05/04 21:47:50.09,IMU,287.60,762.70,576.66,-1.41,2.67,6.20,-52.35,42.30,9.45,26.8
2026/05/04 21:47:50.19,IMU,258.79,762.21,573.73,-1.62,2.15,-2.15,-53.25,42.90,7.50,27.1
2026/05/04 21:47:50.29,IMU,289.55,741.21,583.50,0.20,-1.13,0.14,-52.80,41.55,9.15,27.0
2026/05/04 21:47:50.39,IMU,265.14,756.35,571.78,-0.80,1.79,0.57,-53.70,40.50,8.55,27.1
2026/05/04 21:47:50.49,IMU,278.32,739.26,573.73,-2.07,3.71,-1.87,-52.50,41.25,9.00,27.0
2026/05/04 21:47:50.59,IMU,266.11,741.70,570.31,0.92,-6.56,0.95,-52.95,41.70,7.80,27.1
2026/05/04 21:47:50.69,IMU,275.39,732.42,582.52,-0.09,-5.73,0.27,-53.25,42.45,7.50,27.0
2026/05/04 21:47:50.79,IMU,284.67,744.14,574.71,-2.30,-3.99,-0.33,-53.70,42.00,7.20,26.8
2026/05/04 21:47:50.89,IMU,291.50,737.30,570.80,-1.07,-3.47,1.78,-54.00,41.70,10.05,27.3
2026/05/04 21:47:51.01,IMU,305.18,747.56,611.33,-8.60,-8.74,9.82,-52.20,41.70,10.05,26.9
2026/05/04 21:47:51.11,IMU,315.92,690.43,552.25,-4.02,0.58,-2.48,-53.10,40.05,8.40,26.8
2026/05/04 21:47:51.21,IMU,311.04,731.45,577.64,1.34,4.11,1.69,-53.85,40.05,6.90,27.0
2026/05/04 21:47:51.31,IMU,290.53,723.63,598.63,1.81,2.63,-2.05,-51.00,41.70,7.80,27.4
2026/05/04 21:47:51.41,IMU,283.20,733.89,610.84,1.06,2.02,0.26,-51.45,40.95,8.55,27.1
2026/05/04 21:47:51.51,IMU,302.73,736.33,575.68,1.10,0.27,-0.96,-52.05,40.80,7.65,27.3
2026/05/04 21:47:51.61,IMU,316.41,721.68,562.01,-2.09,1.56,0.28,-51.30,40.35,7.65,27.1
2026/05/04 21:47:51.71,IMU,300.29,726.56,606.93,3.40,-3.28,4.89,-52.80,39.15,8.10,27.0
2026/05/04 21:47:51.81,IMU,307.62,730.96,578.13,4.38,7.68,-0.65,-51.60,39.60,8.10,26.9
2026/05/04 21:47:51.91,IMU,307.62,762.21,589.36,1.03,11.92,10.11,-51.60,38.10,9.45,27.0
2026/05/04 21:47:52.01,IMU,301.76,692.87,592.77,-0.70,14.60,7.16,-50.40,36.00,10.05,26.8
2026/05/04 21:47:52.11,IMU,284.18,715.82,638.18,-6.65,13.34,12.56,-51.00,36.75,10.80,27.0
2026/05/04 21:47:52.21,IMU,283.20,702.15,553.71,-0.74,-0.59,5.47,-49.95,37.50,10.35,27.0
2026/05/04 21:47:52.31,IMU,323.24,708.01,605.47,6.01,-9.15,8.08,-48.45,35.55,9.60,26.8
2026/05/04 21:47:52.42,IMU,335.45,710.45,609.38,-0.09,-6.80,5.53,-49.65,35.55,9.00,26.9
2026/05/04 21:47:52.52,IMU,362.30,714.84,582.03,1.03,-9.02,2.52,-51.00,35.25,9.30,26.8
2026/05/04 21:47:52.62,IMU,400.39,666.50,513.67,-2.07,-2.85,1.83,-50.55,35.85,8.10,27.0
2026/05/04 21:47:52.72,IMU,327.64,724.12,617.68,1.24,4.17,-1.11,-51.00,34.05,9.00,26.9
2026/05/04 21:47:52.83,IMU,354.49,686.04,575.68,-2.80,-5.76,0.90,-50.10,35.40,8.40,27.0
2026/05/04 21:47:52.93,IMU,362.30,718.26,603.03,1.92,-16.82,8.12,-51.75,33.75,8.55,27.0
2026/05/04 21:47:53.03,IMU,424.32,698.24,510.25,0.37,-4.49,2.37,-52.20,32.25,6.75,27.0
2026/05/04 21:47:53.13,IMU,403.32,710.45,604.49,-0.56,-15.42,14.05,-52.05,31.65,6.60,27.1
2026/05/04 21:47:53.23,IMU,423.34,654.30,570.31,-7.08,-3.99,6.30,-53.25,32.25,6.00,27.0
2026/05/04 21:47:53.33,IMU,454.59,668.46,558.59,-0.08,-2.27,1.85,-52.95,33.00,5.70,26.7
2026/05/04 21:47:53.43,IMU,435.55,642.58,580.57,0.23,1.62,0.15,-52.50,31.80,6.00,26.8
2026/05/04 21:47:53.53,IMU,443.36,655.27,576.66,-0.49,1.12,-3.37,-54.00,32.25,5.70,27.0
2026/05/04 21:47:53.63,IMU,439.94,650.39,599.61,1.81,0.65,1.87,-54.00,31.50,6.00,27.1
2026/05/04 21:47:53.73,IMU,447.75,660.16,581.05,0.34,-3.86,0.04,-53.10,32.70,6.90,26.9
2026/05/04 21:47:53.83,IMU,450.68,649.90,552.73,-0.76,1.53,-1.63,-53.70,32.25,7.80,26.8
2026/05/04 21:47:53.93,IMU,451.17,656.25,589.36,3.48,-1.94,0.87,-53.25,33.00,6.45,27.1
2026/05/04 21:47:54.03,IMU,436.04,672.36,571.78,2.32,-7.85,-2.42,-52.80,33.15,7.35,26.8
2026/05/04 21:47:54.13,IMU,461.91,647.95,560.55,0.49,0.56,-4.21,-53.40,33.15,6.90,27.0
2026/05/04 21:47:54.23,IMU,440.43,649.41,575.68,-2.08,-1.50,0.66,-52.95,31.80,6.45,26.9
2026/05/04 21:47:54.34,IMU,434.57,666.99,589.84,0.83,-0.05,-1.41,-54.00,33.75,6.45,26.8
2026/05/04 21:47:54.44,IMU,439.45,658.20,573.24,-0.52,4.60,-1.48,-53.10,34.65,6.90,26.8
2026/05/04 21:47:54.54,IMU,440.43,662.60,573.73,0.20,2.98,0.56,-55.05,31.80,6.00,26.8
2026/05/04 21:47:54.64,IMU,431.64,658.69,603.52,-2.07,1.98,2.37,-52.35,33.15,6.60,27.0
2026/05/04 21:47:54.74,IMU,437.50,656.25,589.36,0.88,1.46,0.02,-54.45,33.00,6.75,26.9
2026/05/04 21:47:54.84,IMU,437.99,656.25,579.10,-0.77,0.88,1.02,-52.50,33.00,7.20,26.9
2026/05/04 21:47:54.94,IMU,436.52,663.57,594.73,0.96,-1.91,-2.06,-52.50,32.55,6.45,27.0
2026/05/04 21:47:55.04,IMU,442.38,649.41,575.68,-1.50,4.23,0.92,-53.10,33.90,6.60,26.9
2026/05/04 21:47:55.14,IMU,449.71,640.14,559.08,0.23,6.09,-1.69,-53.10,33.15,7.35,26.9
2026/05/04 21:47:55.24,IMU,444.34,638.67,583.01,0.24,4.43,-1.05,-54.00,33.75,6.45,26.8
2026/05/04 21:47:55.34,IMU,443.36,635.74,595.70,2.22,-0.08,0.50,-52.95,34.50,7.20,27.2
2026/05/04 21:47:55.44,IMU,434.08,649.41,570.31,0.56,-1.30,-2.08,-53.70,35.25,7.80,27.1
2026/05/04 21:47:55.54,IMU,437.50,646.00,583.50,-1.43,0.29,-1.49,-54.45,34.05,6.45,27.0
2026/05/04 21:47:55.64,IMU,446.78,663.09,574.71,-1.26,2.19,-0.86,-52.35,33.90,5.55,26.9
2026/05/04 21:47:55.74,IMU,431.64,646.48,557.13,1.64,-2.73,4.53,-53.70,34.50,6.45,26.8
2026/05/04 21:47:55.84,IMU,441.89,649.41,590.33,1.02,1.79,1.15,-54.15,35.10,6.30,27.0
2026/05/04 21:47:55.94,IMU,419.92,647.46,581.05,-2.61,1.18,-0.95,-52.50,34.05,6.75,26.7
2026/05/04 21:47:56.04,IMU,434.57,649.41,598.14,-2.58,3.41,-5.30,-51.60,33.90,6.90,27.0
2026/05/04 21:47:56.14,IMU,398.93,671.39,594.24,0.37,-1.40,-1.36,-53.25,33.30,7.20,27.0
2026/05/04 21:47:56.24,IMU,426.27,641.11,586.43,-0.46,1.92,-2.36,-52.05,34.65,6.60,26.8
2026/05/04 21:47:56.34,IMU,430.18,663.09,588.38,-1.29,-0.21,-0.53,-53.70,34.05,6.75,27.1
2026/05/04 21:47:56.44,IMU,418.46,651.37,578.13,-1.51,2.98,-0.60,-52.50,36.00,6.45,27.0
2026/05/04 21:47:56.54,IMU,410.64,649.90,587.89,0.55,3.98,-1.71,-57.00,34.50,10.05,27.1
2026/05/04 21:47:56.64,IMU,425.78,667.97,587.40,-1.38,-1.77,-0.34,-55.35,35.10,6.90,27.1
2026/05/04 21:47:56.74,IMU,440.43,676.76,600.59,1.34,1.44,1.15,-54.60,36.90,6.30,27.0
2026/05/04 21:47:56.84,IMU,409.67,646.48,584.47,0.85,1.04,0.57,-53.40,36.90,7.35,27.1
2026/05/04 21:47:56.95,IMU,421.39,654.79,569.82,0.95,-2.05,2.10,-53.85,35.40,6.60,27.3
2026/05/04 21:47:57.05,IMU,423.83,669.43,595.21,0.44,3.98,-0.44,-54.60,35.10,6.90,26.8
2026/05/04 21:47:57.15,IMU,424.80,669.43,600.59,-1.63,1.66,1.38,-53.85,35.85,7.65,27.0
2026/05/04 21:47:57.25,IMU,408.20,662.60,595.21,0.34,-1.90,-2.01,-53.40,35.40,6.30,26.8
2026/05/04 21:47:57.35,IMU,416.50,645.51,593.26,-0.34,1.15,-3.02,-53.25,35.25,7.20,26.8
2026/05/04 21:47:57.45,IMU,403.81,651.86,599.61,0.89,0.91,-0.85,-54.90,35.10,8.10,26.9
2026/05/04 21:47:57.55,IMU,409.18,659.67,599.61,-0.83,1.71,-1.43,-57.45,35.10,9.90,26.7
2026/05/04 21:47:57.65,IMU,404.30,637.70,619.63,-1.31,2.30,-2.17,-53.70,36.45,6.45,26.8
2026/05/04 21:47:57.75,IMU,415.53,648.93,599.61,1.50,3.61,-1.52,-54.90,35.40,7.65,27.1
2026/05/04 21:47:57.86,IMU,378.91,651.37,616.21,1.51,1.09,-1.60,-54.75,37.20,7.50,27.0
2026/05/04 21:47:57.96,IMU,393.55,652.83,587.89,-0.75,0.19,-2.64,-53.25,37.50,7.50,26.8
2026/05/04 21:47:58.06,IMU,400.39,673.34,613.28,1.73,-3.47,0.63,-53.40,35.85,8.10,27.0
2026/05/04 21:47:58.16,IMU,378.91,657.71,624.02,0.95,2.28,-3.25,-53.40,37.35,7.35,27.0
2026/05/04 21:47:58.26,IMU,392.09,657.23,600.59,3.24,1.32,1.02,-53.10,37.35,6.90,27.1
2026/05/04 21:47:58.36,IMU,382.81,666.99,625.49,-0.47,-0.81,0.57,-52.80,35.40,8.10,26.8
2026/05/04 21:47:58.46,IMU,375.49,666.99,631.84,-0.91,1.51,-2.44,-52.50,35.55,9.30,26.8
2026/05/04 21:47:58.57,IMU,376.95,651.37,609.38,0.34,2.19,-0.36,-57.45,35.85,12.45,27.0
2026/05/04 21:47:58.67,IMU,379.88,661.62,617.19,0.19,1.00,-0.29,-52.50,35.55,9.00,26.9
2026/05/04 21:47:58.77,IMU,379.39,646.00,633.79,-1.53,-1.12,0.63,-52.50,35.55,10.05,26.7
2026/05/04 21:47:58.87,IMU,383.30,650.39,618.65,-0.21,1.75,2.03,-53.10,37.35,9.15,26.9
2026/05/04 21:47:58.97,IMU,368.16,662.11,630.37,-0.39,2.31,-1.10,-52.80,36.15,9.90,26.8
2026/05/04 21:47:59.07,IMU,376.46,683.59,610.84,1.51,2.12,-0.84,-54.75,36.45,7.50,27.0
2026/05/04 21:47:59.17,IMU,375.49,652.83,614.26,1.13,0.01,0.80,-53.40,35.10,7.65,27.1
2026/05/04 21:47:59.27,IMU,368.65,671.88,634.77,-0.63,5.19,-0.11,-52.95,37.50,8.55,26.7
2026/05/04 21:47:59.37,IMU,356.93,653.81,617.68,0.76,-2.70,-0.69,-53.25,36.00,9.00,26.8
2026/05/04 21:47:59.47,IMU,354.49,662.60,632.32,-1.62,2.47,-0.21,-53.85,35.85,8.70,27.0
2026/05/04 21:47:59.57,IMU,368.16,679.69,618.16,2.48,-3.88,-3.82,-52.80,37.35,8.10,27.0
2026/05/04 21:47:59.67,IMU,394.53,646.00,599.61,-0.02,1.10,2.88,-52.50,37.20,8.25,26.8
2026/05/04 21:47:59.77,IMU,348.63,643.07,631.35,-3.03,6.08,-1.92,-52.50,37.20,7.50,26.9
2026/05/04 21:47:59.87,IMU,343.26,682.62,635.25,-4.89,10.99,-4.60,-52.80,36.15,8.70,26.8
2026/05/04 21:47:59.97,IMU,357.42,662.60,593.75,-4.43,0.60,-0.50,-51.30,38.85,8.40,26.8
2026/05/04 21:48:00.07,IMU,356.93,660.16,639.65,-1.80,6.37,-3.38,-52.50,36.75,9.30,26.8
2026/05/04 21:48:00.17,IMU,340.33,660.64,625.98,0.40,1.75,0.79,-52.20,36.75,10.05,26.7
2026/05/04 21:48:00.27,IMU,357.91,648.93,622.56,1.79,-2.65,4.11,-52.95,37.20,9.60,26.8
2026/05/04 21:48:00.37,IMU,358.40,669.92,641.60,-0.34,2.43,-0.18,-52.95,37.20,8.25,26.9
2026/05/04 21:48:00.47,IMU,373.54,659.67,591.31,1.37,-0.43,0.63,-53.25,38.25,8.25,26.8
2026/05/04 21:48:00.57,IMU,357.42,690.43,646.97,-1.89,8.11,1.31,-52.80,36.90,9.15,26.8
2026/05/04 21:48:00.67,IMU,300.78,667.48,650.39,-1.58,5.02,3.05,-53.25,36.75,9.00,26.9
2026/05/04 21:48:00.77,IMU,345.70,611.33,624.51,1.50,2.45,-0.82,-52.80,37.65,9.15,26.9
2026/05/04 21:48:00.87,IMU,332.03,665.53,677.73,4.86,8.24,3.81,-53.40,37.35,11.25,26.7
2026/05/04 21:48:00.97,IMU,303.71,656.25,643.07,-2.31,4.59,1.46,-51.75,38.70,11.10,26.8
2026/05/04 21:48:01.07,IMU,352.54,665.53,634.77,3.71,-1.82,2.86,-53.70,37.50,10.35,26.6
2026/05/04 21:48:01.17,IMU,327.15,656.74,630.86,-0.63,1.53,-1.06,-51.30,37.65,9.15,26.8
2026/05/04 21:48:01.27,IMU,321.78,671.88,650.39,-1.77,0.70,0.08,-53.25,36.75,10.05,26.8
2026/05/04 21:48:01.38,IMU,322.27,673.83,626.95,-1.30,-0.53,1.44,-53.40,36.15,9.15,26.6
2026/05/04 21:48:01.48,IMU,323.73,657.23,596.19,10.15,-0.31,-0.48,-52.80,38.40,10.50,26.7
2026/05/04 21:48:01.58,IMU,338.38,709.47,727.05,2.01,7.47,-1.42,-51.30,38.10,9.90,26.4
2026/05/04 21:48:01.68,IMU,265.14,694.34,613.77,-2.05,-3.93,3.92,-51.00,38.25,10.35,26.7
2026/05/04 21:48:01.78,IMU,334.96,662.11,681.15,-0.15,11.69,-4.66,-51.75,37.50,11.10,26.5
2026/05/04 21:48:01.88,IMU,277.34,691.89,671.39,0.31,-1.15,4.84,-52.95,37.20,13.65,26.7
2026/05/04 21:48:01.98,IMU,331.54,635.74,598.14,-1.39,8.89,-3.02,-52.20,37.20,11.85,26.5
2026/05/04 21:48:02.08,IMU,307.62,669.43,649.41,0.62,-2.93,-1.67,-51.60,38.85,11.25,26.8
2026/05/04 21:48:02.18,IMU,284.18,678.71,649.41,-3.39,1.85,-0.06,-52.05,37.65,11.25,26.8
2026/05/04 21:48:02.28,IMU,311.52,686.52,657.71,-2.41,3.60,-1.52,-52.50,36.75,11.55,26.7
2026/05/04 21:48:02.38,IMU,307.62,666.02,624.02,1.95,2.03,-0.73,-51.75,37.20,10.05,26.8
2026/05/04 21:48:02.48,IMU,298.34,662.11,675.29,-0.31,-1.80,1.35,-51.60,38.10,9.90,26.7
2026/05/04 21:48:02.58,IMU,313.96,688.96,679.69,-3.38,-0.47,0.24,-51.75,38.25,10.80,26.7
2026/05/04 21:48:02.68,IMU,309.57,669.43,644.53,-2.40,0.23,-1.43,-51.75,37.20,10.35,26.8
2026/05/04 21:48:02.78,IMU,307.62,662.11,682.13,-0.66,-9.21,3.36,-52.20,38.25,10.80,26.7
2026/05/04 21:48:02.89,IMU,343.75,658.69,615.23,1.40,-10.96,1.26,-52.35,36.60,9.90,26.9
2026/05/04 21:48:02.99,IMU,333.98,669.92,642.58,1.74,2.39,1.60,-53.25,37.50,10.80,26.8
2026/05/04 21:48:03.09,IMU,328.13,676.27,675.29,1.39,-0.63,0.59,-52.05,37.35,10.20,26.6
2026/05/04 21:48:03.19,IMU,333.01,664.06,642.58,-1.08,2.53,0.72,-53.25,37.20,9.30,26.9
2026/05/04 21:48:03.29,IMU,332.03,665.04,653.81,-2.37,1.67,0.73,-51.75,36.00,10.35,26.7
2026/05/04 21:48:03.39,IMU,336.91,651.86,628.91,-0.96,0.06,0.56,-52.80,36.90,10.50,26.8
2026/05/04 21:48:03.49,IMU,324.22,661.13,628.91,1.83,4.15,-3.01,-51.75,38.70,10.05,26.8
2026/05/04 21:48:03.59,IMU,313.48,657.23,652.34,-0.69,-0.67,-0.75,-52.35,37.35,8.70,26.8
2026/05/04 21:48:03.69,IMU,336.43,674.80,650.39,-2.62,0.70,-0.41,-51.30,37.65,9.15,26.5
2026/05/04 21:48:03.79,IMU,342.77,652.83,626.95,1.29,2.50,0.70,-52.05,35.85,9.90,26.8
2026/05/04 21:48:03.89,IMU,319.82,659.18,649.90,0.29,6.13,-0.21,-51.00,38.25,10.05,26.7
2026/05/04 21:48:03.99,IMU,338.38,670.41,629.39,-2.04,3.94,-1.68,-51.60,37.35,10.50,26.6
2026/05/04 21:48:04.09,IMU,329.10,667.48,627.44,0.16,2.38,-2.12,-51.75,37.95,10.35,26.8
2026/05/04 21:48:04.19,IMU,332.52,679.20,662.11,-0.78,0.79,1.44,-52.50,36.75,9.60,26.7
2026/05/04 21:48:04.29,IMU,323.24,635.25,631.35,0.74,5.34,-1.85,-50.85,36.60,9.90,26.8
2026/05/04 21:48:04.39,IMU,326.66,659.18,640.14,0.16,0.16,-1.47,-51.00,37.95,10.80,26.9
2026/05/04 21:48:04.49,IMU,323.73,663.57,643.07,1.20,-1.21,0.59,-51.60,37.20,11.55,26.5
2026/05/04 21:48:04.59,IMU,324.71,675.78,631.84,2.11,2.15,1.85,-52.50,37.95,9.60,26.7
2026/05/04 21:48:04.69,IMU,320.80,660.64,673.34,0.09,3.89,-0.45,-55.50,34.80,15.15,26.7
2026/05/04 21:48:04.79,IMU,323.24,677.25,646.48,-1.82,2.02,0.19,-52.05,36.60,9.90,26.7
2026/05/04 21:48:04.89,IMU,329.10,660.16,640.63,3.50,-2.90,-0.48,-52.20,36.75,10.80,26.3
2026/05/04 21:48:04.99,IMU,339.36,659.67,643.55,1.76,1.50,1.13,-52.35,38.10,9.15,26.7
2026/05/04 21:48:05.09,IMU,310.55,657.71,644.53,1.40,-1.34,-0.07,-52.05,37.65,11.25,26.6
2026/05/04 21:48:05.19,IMU,321.29,665.53,646.97,-1.48,-0.12,2.56,-52.35,36.90,9.15,26.6
2026/05/04 21:48:05.30,IMU,336.91,678.71,630.86,-0.38,-2.14,-0.61,-50.10,37.35,11.70,26.6
2026/05/04 21:48:05.40,IMU,319.82,661.13,645.51,2.36,-0.73,2.11,-51.30,38.10,10.20,26.6
2026/05/04 21:48:05.50,IMU,295.90,669.92,644.53,-1.11,-0.97,-0.61,-51.00,38.25,10.80,26.9
2026/05/04 21:48:05.60,IMU,325.20,661.13,637.70,-1.00,1.51,-1.93,-52.05,38.10,10.95,26.5
2026/05/04 21:48:05.70,IMU,317.87,676.76,625.98,-0.04,0.55,3.20,-51.60,36.90,10.20,26.8
2026/05/04 21:48:05.80,IMU,318.36,672.85,656.74,-0.36,0.56,1.42,-52.05,36.90,10.95,26.6
2026/05/04 21:48:05.90,IMU,315.92,652.34,650.88,-1.11,1.17,-0.50,-52.50,37.95,10.35,26.8
2026/05/04 21:48:06.00,IMU,329.59,671.88,645.51,-0.62,3.24,-1.41,-52.05,36.60,11.70,26.7
2026/05/04 21:48:06.10,IMU,312.01,658.20,632.81,-1.17,2.45,-0.16,-51.30,37.65,9.90,26.8
2026/05/04 21:48:06.20,IMU,321.78,675.78,633.30,-0.28,1.53,-0.86,-50.85,38.10,9.90,26.4
2026/05/04 21:48:06.30,IMU,318.85,684.08,640.14,1.91,-3.60,-3.13,-51.60,38.10,10.50,26.6
2026/05/04 21:48:06.40,IMU,299.80,658.69,672.36,1.74,-4.34,-0.39,-52.05,36.15,8.40,26.6
2026/05/04 21:48:06.50,IMU,340.82,704.59,641.11,-1.01,-3.24,-2.68,-52.05,37.35,9.90,26.7
2026/05/04 21:48:06.60,IMU,335.45,662.60,604.00,2.27,-5.14,1.40,-51.60,37.65,9.45,26.4
2026/05/04 21:48:06.70,IMU,322.27,655.27,628.42,-2.89,5.36,-1.55,-53.25,37.20,10.05,26.4
2026/05/04 21:48:06.80,IMU,315.92,669.43,643.07,-1.56,3.21,-1.79,-52.50,37.50,8.55,26.6
2026/05/04 21:48:06.90,IMU,326.17,670.90,606.45,1.11,2.39,-1.94,-51.30,36.60,10.95,26.4
2026/05/04 21:48:07.01,IMU,348.63,673.34,599.12,2.82,-2.57,4.47,-50.40,38.70,10.05,26.4
2026/05/04 21:48:07.11,IMU,301.76,710.94,663.09,0.69,9.47,-2.53,-50.85,38.40,10.50,26.7
2026/05/04 21:48:07.22,IMU,315.43,631.35,619.14,-3.13,-0.49,1.98,-51.30,36.90,11.25,26.6
2026/05/04 21:48:07.32,IMU,327.64,671.39,625.98,0.44,0.66,0.63,-50.40,37.95,9.60,26.6
2026/05/04 21:48:07.42,IMU,321.29,680.18,622.56,-0.92,0.03,-1.18,-51.60,36.90,10.95,26.8
2026/05/04 21:48:07.52,IMU,335.45,692.38,652.83,1.06,-0.49,4.05,-51.45,39.00,10.05,26.7
2026/05/04 21:48:07.62,IMU,305.18,646.48,634.77,0.15,-2.04,0.49,-51.30,36.90,10.50,26.5
2026/05/04 21:48:07.72,IMU,315.43,688.96,633.79,0.35,4.32,-0.04,-51.60,37.65,10.20,26.7
2026/05/04 21:48:07.82,IMU,304.20,687.99,671.39,1.34,-4.06,-3.05,-51.45,38.25,9.30,26.8
2026/05/04 21:48:07.92,IMU,324.22,679.69,785.16,-0.30,10.21,-4.63,-50.70,39.75,10.80,26.8
2026/05/04 21:48:08.02,IMU,322.75,656.25,576.17,1.11,-2.18,2.24,-52.20,38.25,11.10,26.6
2026/05/04 21:48:08.12,IMU,292.48,711.91,679.20,-0.34,2.87,-1.56,-51.75,39.00,10.35,26.6
2026/05/04 21:48:08.22,IMU,318.85,698.73,604.49,-0.87,2.06,0.82,-51.00,38.25,11.55,26.5
2026/05/04 21:48:08.32,IMU,328.61,670.90,643.55,0.52,3.98,-6.56,-50.70,39.00,11.55,26.5
2026/05/04 21:48:08.42,IMU,293.46,675.78,620.61,1.27,-0.18,0.51,-51.30,39.15,8.70,26.5
2026/05/04 21:48:08.52,IMU,302.25,703.13,638.67,-2.34,-0.01,1.03,-51.45,38.25,10.35,26.4
2026/05/04 21:48:08.62,IMU,318.85,707.03,628.42,-0.02,-3.56,-1.11,-50.55,39.15,10.20,26.8
2026/05/04 21:48:08.72,IMU,297.36,688.48,625.49,0.60,-1.02,0.54,-50.85,38.85,10.95,26.7
2026/05/04 21:48:08.83,IMU,293.95,675.78,645.51,-0.34,0.99,-1.31,-50.40,38.25,10.80,26.7
2026/05/04 21:48:08.93,IMU,303.71,696.78,617.19,0.34,0.70,2.50,-51.75,37.20,10.80,26.5
2026/05/04 21:48:09.03,IMU,306.64,679.20,638.18,-2.69,0.96,-2.01,-51.30,37.65,10.20,27.0
2026/05/04 21:48:09.13,IMU,316.89,672.85,629.39,0.97,-0.21,-1.51,-52.50,39.00,10.05,26.5
2026/05/04 21:48:09.23,IMU,305.18,687.50,633.30,0.95,-0.20,-0.07,-51.45,38.25,9.30,26.4
2026/05/04 21:48:09.33,IMU,301.27,687.01,639.16,1.63,-0.46,2.59,-51.45,37.50,10.35,26.6
2026/05/04 21:48:09.43,IMU,310.55,681.15,646.48,2.22,-3.88,-0.73,-49.95,39.45,10.35,26.5
2026/05/04 21:48:09.53,IMU,299.80,700.68,664.55,3.00,1.43,-1.14,-51.00,39.45,11.55,26.8
2026/05/04 21:48:09.63,IMU,312.50,675.78,625.49,0.62,-2.05,1.24,-50.10,39.15,8.40,26.5
2026/05/04 21:48:09.73,IMU,287.11,683.11,620.61,-0.20,-0.05,2.76,-52.05,39.15,10.20,26.4
2026/05/04 21:48:09.83,IMU,329.59,695.31,625.49,1.97,3.95,-0.05,-51.30,39.15,9.90,26.7
2026/05/04 21:48:09.93,IMU,275.88,674.32,632.32,-1.27,-0.40,-0.31,-51.30,39.60,10.20,26.5
2026/05/04 21:48:10.03,IMU,295.90,667.97,624.51,3.06,-1.39,0.25,-51.45,37.95,10.35,26.7
2026/05/04 21:48:10.13,IMU,316.41,687.01,643.07,0.78,-1.97,3.79,-51.45,38.25,9.60,26.8
2026/05/04 21:48:10.23,IMU,306.15,690.43,633.30,-2.33,3.56,-0.94,-51.45,39.00,10.05,26.4
2026/05/04 21:48:10.33,IMU,294.43,686.04,626.46,3.05,3.82,-2.32,-51.45,39.75,10.35,26.8
2026/05/04 21:48:10.43,IMU,296.39,684.57,642.09,-0.19,2.69,0.24,-51.45,38.25,10.35,26.6
2026/05/04 21:48:10.53,IMU,294.43,689.45,625.98,2.11,-0.90,2.66,-51.00,39.75,10.35,26.8
2026/05/04 21:48:10.63,IMU,292.48,699.71,649.41,0.40,2.18,0.17,-49.80,38.85,9.90,26.6
2026/05/04 21:48:10.73,IMU,301.27,680.66,627.44,0.03,0.62,-1.92,-51.60,38.85,10.95,26.7
2026/05/04 21:48:10.83,IMU,302.73,683.59,635.25,2.39,-1.59,0.48,-49.95,38.70,10.35,26.4
2026/05/04 21:48:10.93,IMU,297.36,694.34,645.51,-1.59,0.48,-2.18,-50.55,38.85,10.50,26.6
2026/05/04 21:48:11.03,IMU,295.41,681.64,604.49,1.37,-3.66,2.67,-50.55,39.60,10.50,26.6
2026/05/04 21:48:11.13,IMU,277.34,682.62,642.58,-2.56,1.73,-1.17,-50.55,39.60,10.20,26.7
2026/05/04 21:48:11.23,IMU,295.41,690.43,629.39,1.69,2.12,3.52,-50.55,38.40,11.25,26.7
2026/05/04 21:48:11.34,IMU,290.04,691.89,645.02,1.06,0.18,2.87,-51.30,38.85,10.95,26.4
2026/05/04 21:48:11.44,IMU,304.69,676.76,620.12,-2.75,3.78,-1.18,-51.00,38.70,10.35,26.7
2026/05/04 21:48:11.54,IMU,301.76,683.11,644.53,1.32,-3.56,0.78,-51.00,39.45,11.10,26.7
2026/05/04 21:48:11.64,IMU,305.66,681.64,618.16,-0.29,-0.07,-1.42,-49.80,39.60,10.50,26.5
2026/05/04 21:48:11.74,IMU,299.32,686.04,622.56,1.92,-0.38,0.09,-50.40,39.75,10.80,26.6
2026/05/04 21:48:11.84,IMU,301.76,681.15,638.67,-1.37,0.55,-2.69,-51.00,38.70,9.60,26.8
2026/05/04 21:48:11.94,IMU,293.46,689.45,639.16,0.47,3.91,-1.32,-52.20,38.25,9.60,26.5
2026/05/04 21:48:12.04,IMU,290.53,691.41,648.44,-0.08,0.67,-1.67,-51.60,38.85,11.25,26.6
2026/05/04 21:48:12.14,IMU,292.48,685.55,630.86,0.16,-0.11,1.61,-50.85,38.85,11.25,26.6
2026/05/04 21:48:12.24,IMU,295.41,680.18,627.93,-0.43,-0.20,1.69,-51.00,38.25,10.80,26.6
2026/05/04 21:48:12.34,IMU,290.04,679.20,636.23,0.40,0.89,-2.87,-50.40,39.00,10.05,26.8
2026/05/04 21:48:12.44,IMU,288.09,682.62,621.58,0.89,1.35,-1.58,-50.40,37.50,10.05,26.6
2026/05/04 21:48:12.54,IMU,303.71,690.92,631.84,0.81,-0.58,1.71,-50.85,38.40,11.25,26.3
2026/05/04 21:48:12.64,IMU,297.85,681.64,642.09,0.75,-0.24,-0.29,-50.85,39.15,11.70,26.5
2026/05/04 21:48:12.74,IMU,281.74,682.13,627.93,0.19,0.23,-0.47,-51.45,37.50,11.10,26.4
2026/05/04 21:48:12.84,IMU,299.80,684.08,651.86,-0.47,-0.62,2.71,-54.15,37.35,13.80,26.5
2026/05/04 21:48:12.96,IMU,292.97,683.59,653.81,-1.01,-1.85,-0.75,-50.70,39.00,11.10,26.4
2026/05/04 21:48:13.06,IMU,293.95,680.66,647.95,-1.63,-0.16,-0.33,-49.65,38.70,10.35,26.7
2026/05/04 21:48:13.16,IMU,290.04,680.18,638.67,0.21,-1.25,2.22,-51.00,38.70,10.05,26.6
2026/05/04 21:48:13.26,IMU,301.76,693.85,646.48,-0.40,0.36,1.57,-50.70,38.70,10.35,26.6
2026/05/04 21:48:13.36,IMU,284.18,691.89,661.62,0.16,2.97,-1.95,-51.00,37.95,11.10,26.5
2026/05/04 21:48:13.46,IMU,290.53,685.06,637.21,0.56,-0.06,-0.62,-51.00,38.70,11.55,26.7
2026/05/04 21:48:13.56,IMU,289.06,678.22,633.30,1.80,0.95,0.04,-50.70,39.00,10.05,26.6
2026/05/04 21:48:13.66,IMU,285.16,687.01,644.04,-0.85,-1.30,2.91,-50.70,38.25,11.10,26.6
2026/05/04 21:48:13.76,IMU,290.53,695.31,651.86,-1.80,-0.07,5.49,-50.70,39.45,10.35,26.4
2026/05/04 21:48:13.86,IMU,279.79,681.64,639.16,-0.21,2.28,0.98,-53.40,35.85,14.85,26.6
2026/05/04 21:48:13.96,IMU,301.76,682.13,630.86,0.56,1.52,-0.50,-48.45,38.25,11.10,26.4
2026/05/04 21:48:14.06,IMU,289.55,688.96,625.49,2.29,-2.02,0.96,-50.55,38.40,9.45,26.7
2026/05/04 21:48:14.16,IMU,286.13,697.27,644.04,-1.21,2.02,0.06,-50.40,38.70,11.55,26.6
2026/05/04 21:48:14.26,IMU,280.27,671.39,618.16,1.25,2.95,3.59,-50.85,40.05,11.25,26.4
2026/05/04 21:48:14.36,IMU,289.06,689.45,624.02,-1.32,0.40,-0.19,-49.95,39.00,11.85,26.7
2026/05/04 21:48:14.46,IMU,295.41,687.01,627.44,-1.07,-0.63,-1.91,-50.55,40.80,9.90,26.5
2026/05/04 21:48:14.57,IMU,302.73,686.52,634.77,-0.29,0.89,-1.45,-49.20,38.70,10.35,26.6
2026/05/04 21:48:14.67,IMU,292.97,685.55,612.30,0.21,0.82,0.00,-50.85,39.15,11.25,26.6
2026/05/04 21:48:14.78,IMU,292.48,687.99,640.63,1.02,-1.02,1.23,-49.95,38.25,10.35,26.5
2026/05/04 21:48:14.88,IMU,298.34,685.55,630.86,-0.53,-0.51,1.42,-53.10,37.35,12.45,26.6
2026/05/04 21:48:14.98,IMU,294.43,676.27,620.12,-1.15,1.20,-0.42,-52.80,38.40,10.20,26.6
2026/05/04 21:48:15.08,IMU,295.41,680.18,620.12,1.69,-2.75,1.11,-50.55,40.80,10.50,26.4
2026/05/04 21:48:15.18,IMU,300.29,698.73,650.88,0.42,1.95,-0.93,-52.35,39.60,10.20,26.5
2026/05/04 21:48:15.28,IMU,294.43,681.64,630.37,-0.78,2.23,-4.63,-51.30,38.10,11.25,26.5
2026/05/04 21:48:15.38,IMU,304.20,682.62,628.91,0.78,-0.99,1.96,-49.35,37.65,12.00,26.5
2026/05/04 21:48:15.48,IMU,295.41,694.34,646.00,-0.55,2.89,-1.92,-49.95,39.75,9.30,26.5
2026/05/04 21:48:15.58,IMU,306.64,687.99,619.63,-0.59,2.92,-1.28,-50.55,37.35,10.50,26.6
2026/05/04 21:48:15.68,IMU,290.53,689.45,633.30,2.83,0.73,-0.67,-51.30,38.85,10.50,26.4
2026/05/04 21:48:15.78,IMU,291.02,693.36,634.77,0.05,-0.29,-1.87,-49.95,39.45,12.15,26.3
2026/05/04 21:48:15.89,IMU,288.09,692.38,637.70,-2.01,2.60,0.50,-53.40,36.90,15.30,26.4
2026/05/04 21:48:15.99,IMU,282.71,676.27,637.70,-1.02,3.42,-0.83,-51.45,38.70,10.05,26.4
2026/05/04 21:48:16.09,IMU,284.18,707.03,639.16,5.02,2.52,-0.76,-49.20,37.50,10.80,26.4
2026/05/04 21:48:16.19,IMU,282.71,699.22,638.18,-0.34,3.04,-0.24,-48.75,36.15,10.95,26.5
2026/05/04 21:48:16.29,IMU,282.23,689.45,620.12,-1.06,0.27,1.25,-48.90,38.25,9.60,26.6
2026/05/04 21:48:16.39,IMU,287.60,692.87,629.39,0.55,0.17,0.37,-48.90,37.20,10.80,26.4
2026/05/04 21:48:16.49,IMU,294.92,720.70,678.71,-0.71,7.10,-2.53,-48.90,37.50,11.85,26.3
2026/05/04 21:48:16.59,IMU,263.67,690.92,662.11,-3.36,3.60,-1.51,-47.55,35.85,12.45,26.4
2026/05/04 21:48:16.69,IMU,286.62,682.62,646.48,0.83,1.42,-0.99,-48.45,36.45,12.60,26.7
2026/05/04 21:48:16.79,IMU,282.71,686.52,614.26,-1.08,0.37,1.45,-49.35,37.35,10.95,26.6
2026/05/04 21:48:16.89,IMU,280.76,698.24,646.00,0.66,-2.19,-1.37,-48.45,37.95,10.05,26.5
2026/05/04 21:48:16.99,IMU,284.18,682.62,615.72,0.08,1.48,-2.53,-48.45,37.50,11.10,26.3
2026/05/04 21:48:17.09,IMU,290.04,676.27,638.18,0.33,-1.20,1.23,-49.20,37.20,10.80,26.4
2026/05/04 21:48:17.19,IMU,282.23,687.50,640.63,-0.55,2.74,0.69,-48.45,37.50,10.80,26.7
2026/05/04 21:48:17.29,IMU,278.32,678.22,651.37,0.62,-1.02,-0.85,-48.30,36.90,10.95,26.4
2026/05/04 21:48:17.39,IMU,276.37,684.57,629.88,0.11,1.76,-0.08,-48.75,37.65,12.00,26.5
2026/05/04 21:48:17.49,IMU,277.34,693.36,639.65,-1.24,4.61,-4.88,-48.75,36.15,9.45,26.3
2026/05/04 21:48:17.59,IMU,290.53,684.57,619.63,2.31,-1.50,3.99,-49.05,37.65,10.20,26.4
2026/05/04 21:48:17.69,IMU,266.11,684.08,642.58,4.95,-3.98,-0.52,-48.75,36.60,10.95,26.7
2026/05/04 21:48:17.79,IMU,285.64,682.62,654.30,1.01,-3.76,0.56,-47.70,37.20,11.55,26.5
2026/05/04 21:48:17.89,IMU,268.07,685.06,647.46,-0.13,1.50,-0.18,-48.15,38.70,11.85,26.5
2026/05/04 21:48:17.99,IMU,275.88,682.13,631.35,0.14,4.24,1.60,-48.45,37.50,10.05,26.4
2026/05/04 21:48:18.09,IMU,271.97,681.64,615.23,0.62,-2.32,0.56,-49.20,35.55,10.80,26.5
2026/05/04 21:48:18.19,IMU,287.60,679.20,633.79,-0.47,1.47,-0.57,-48.15,37.95,10.80,26.5
2026/05/04 21:48:18.30,IMU,286.13,679.69,616.21,-2.05,-1.41,-2.36,-47.55,36.60,11.70,26.4
2026/05/04 21:48:18.40,IMU,270.02,690.43,622.56,-4.47,2.95,-1.76,-48.00,37.65,10.50,26.4
2026/05/04 21:48:18.50,IMU,276.86,685.55,633.30,1.17,0.60,-2.67,-48.00,38.40,10.20,26.1
2026/05/04 21:48:18.60,IMU,270.51,699.71,632.81,-0.57,2.45,-1.33,-48.75,36.60,11.70,26.5
2026/05/04 21:48:18.70,IMU,283.69,693.85,630.86,0.92,-0.92,0.15,-47.70,40.20,9.60,26.4
2026/05/04 21:48:18.80,IMU,277.34,693.36,640.14,-1.16,0.56,-0.02,-47.55,37.65,12.45,26.5
2026/05/04 21:48:18.91,IMU,291.99,700.68,615.72,1.14,1.32,0.08,-48.30,38.10,10.20,26.5
2026/05/04 21:48:19.01,IMU,266.60,685.55,643.55,0.21,-3.16,0.12,-48.90,37.95,10.35,26.4
2026/05/04 21:48:19.11,IMU,280.27,686.52,631.35,0.55,0.54,1.28,-48.15,38.25,11.10,26.7
2026/05/04 21:48:19.21,IMU,271.48,681.64,646.97,1.12,-2.97,-3.47,-48.30,38.40,10.50,26.3
2026/05/04 21:48:19.31,IMU,279.30,680.66,645.51,-1.37,-0.75,-1.02,-48.75,36.60,10.95,26.5
2026/05/04 21:48:19.41,IMU,294.92,696.78,642.58,0.69,-0.07,-0.16,-48.30,37.65,12.00,26.6
2026/05/04 21:48:19.51,IMU,287.60,685.55,639.65,-0.50,0.59,0.91,-48.75,36.90,10.95,26.4
2026/05/04 21:48:19.61,IMU,285.64,696.29,645.51,-0.56,2.49,-0.74,-48.45,37.20,12.15,26.4
2026/05/04 21:48:19.71,IMU,293.95,702.15,634.77,0.73,-4.26,-0.25,-48.90,38.70,11.10,26.6
2026/05/04 21:48:19.81,IMU,277.34,675.78,611.82,0.45,1.15,1.34,-49.05,37.65,10.20,26.3
2026/05/04 21:48:19.91,IMU,291.99,692.38,637.70,0.73,-0.73,0.46,-47.25,36.90,10.20,26.6
2026/05/04 21:48:20.01,IMU,273.93,697.75,632.32,0.98,-0.74,-0.18,-47.10,37.95,10.05,26.3
2026/05/04 21:48:20.11,IMU,293.46,687.99,635.74,-0.18,0.78,0.18,-47.55,36.60,10.50,26.3
2026/05/04 21:48:20.21,IMU,281.74,697.27,648.44,1.62,-3.01,-2.51,-47.55,38.10,10.95,26.5
2026/05/04 21:48:20.31,IMU,265.63,687.01,632.81,-0.56,4.15,-4.29,-48.15,37.95,11.10,26.4
2026/05/04 21:48:20.41,IMU,289.55,689.94,635.25,-1.85,-1.75,-0.20,-48.75,38.10,11.70,26.3
2026/05/04 21:48:20.51,IMU,277.83,681.15,636.23,-0.01,-0.40,-1.32,-48.75,37.35,10.20,26.4
2026/05/04 21:48:20.61,IMU,291.02,676.27,641.60,-0.67,0.90,0.58,-48.75,39.15,11.70,26.5
2026/05/04 21:48:20.71,IMU,275.39,700.68,648.44,-0.63,3.24,0.97,-48.30,37.65,11.25,26.4
2026/05/04 21:48:20.81,IMU,280.27,692.87,643.07,-1.15,-0.71,0.63,-48.30,37.35,10.50,26.6
2026/05/04 21:48:20.91,IMU,261.72,680.18,639.65,-1.18,-0.28,-0.44,-48.00,36.90,11.70,26.5
2026/05/04 21:48:21.01,IMU,280.27,690.43,631.35,-0.87,1.12,-0.43,-49.05,38.10,10.20,26.4
2026/05/04 21:48:21.11,IMU,283.20,695.80,632.32,1.62,0.89,-0.62,-48.00,38.40,10.95,26.4
2026/05/04 21:48:21.21,IMU,266.60,688.96,641.11,-1.37,0.79,1.30,-46.50,36.60,10.50,26.3
2026/05/04 21:48:21.32,IMU,280.27,687.01,643.55,0.06,0.11,-0.56,-49.20,37.20,9.60,26.5
2026/05/04 21:48:21.42,IMU,267.09,699.22,655.76,-2.35,0.29,0.90,-49.20,38.70,9.60,26.5
2026/05/04 21:48:21.52,IMU,286.13,687.99,634.28,-0.74,1.55,-1.90,-48.90,38.70,10.35,26.6
2026/05/04 21:48:21.62,IMU,286.62,686.52,654.79,1.10,0.79,3.45,-47.55,38.10,10.95,26.2
2026/05/04 21:48:21.72,IMU,279.30,687.99,658.69,-2.20,0.85,-0.74,-47.70,37.50,12.15,26.4
2026/05/04 21:48:21.82,IMU,281.74,680.18,632.32,0.62,0.82,1.35,-47.55,38.10,10.20,26.5
2026/05/04 21:48:21.92,IMU,284.18,689.45,625.00,0.93,0.13,0.34,-48.45,37.50,9.60,26.4
2026/05/04 21:48:22.03,IMU,269.53,680.66,644.53,1.06,-1.69,1.56,-48.15,36.00,11.10,26.5
2026/05/04 21:48:22.13,IMU,283.69,680.66,629.88,-0.17,3.59,-1.11,-48.15,37.95,11.85,26.4
2026/05/04 21:48:22.23,IMU,275.39,686.04,653.32,-0.08,-0.40,-1.50,-47.70,37.50,10.80,26.4
2026/05/04 21:48:22.33,IMU,286.13,686.04,625.00,-0.86,1.26,1.69,-48.00,37.65,12.00,26.2
2026/05/04 21:48:22.43,IMU,280.27,692.38,646.48,0.58,0.82,-1.67,-48.45,37.20,11.10,26.5
2026/05/04 21:48:22.53,IMU,282.23,687.99,645.02,-1.44,3.43,-0.84,-47.25,36.60,10.95,26.4
2026/05/04 21:48:22.63,IMU,286.62,687.50,638.18,1.03,-0.86,-1.75,-49.35,36.60,11.70,26.6
2026/05/04 21:48:22.73,IMU,273.44,693.85,662.11,1.80,-1.62,2.60,-49.65,35.55,11.10,26.5
2026/05/04 21:48:22.83,IMU,288.57,683.11,644.04,1.05,0.63,1.63,-48.45,34.50,11.55,26.5
2026/05/04 21:48:22.93,IMU,282.23,676.27,630.86,0.88,4.85,-0.16,-49.95,36.00,11.85,26.6
2026/05/04 21:48:23.03,IMU,292.97,714.84,620.61,2.73,6.52,2.18,-52.80,33.60,14.85,26.6
2026/05/04 21:48:23.13,IMU,266.11,680.18,634.28,-1.79,2.09,-0.44,-49.80,35.10,12.45,26.5
2026/05/04 21:48:23.23,IMU,272.95,687.50,629.88,1.99,-5.53,2.15,-49.35,35.10,11.25,26.4
2026/05/04 21:48:23.33,IMU,303.71,712.89,602.54,-1.95,4.57,0.36,-50.10,34.35,10.50,26.4
2026/05/04 21:48:23.43,IMU,285.16,700.20,616.21,5.41,1.98,-0.19,-49.35,34.65,12.00,26.4
2026/05/04 21:48:23.53,IMU,286.62,683.59,627.93,1.15,-1.98,0.49,-49.35,35.10,11.25,26.7
2026/05/04 21:48:23.63,IMU,296.39,695.31,613.28,0.08,-3.51,0.34,-50.85,35.10,12.45,26.7
2026/05/04 21:48:23.73,IMU,293.95,713.87,622.56,0.85,2.59,-2.34,-49.05,33.90,12.00,26.4
2026/05/04 21:48:23.85,IMU,301.27,704.59,623.54,-2.29,0.08,3.28,-49.65,33.00,12.15,26.5
2026/05/04 21:48:23.95,IMU,293.46,694.82,617.68,-1.85,-1.25,-2.61,-50.10,35.10,11.25,26.6
2026/05/04 21:48:24.05,IMU,302.25,696.78,614.75,0.21,-1.50,3.15,-51.75,32.55,14.40,26.4
2026/05/04 21:48:24.15,IMU,310.55,691.89,634.77,-1.24,-0.29,0.17,-49.80,36.15,11.25,26.6
2026/05/04 21:48:24.25,IMU,309.08,698.73,604.98,-0.63,-3.44,2.96,-50.40,34.05,11.10,26.4
2026/05/04 21:48:24.35,IMU,316.89,706.54,642.09,0.75,-11.01,4.26,-50.70,36.45,10.35,26.3
2026/05/04 21:48:24.45,IMU,334.96,680.66,623.54,-3.19,2.95,0.98,-50.40,35.55,11.55,26.7
2026/05/04 21:48:24.55,IMU,312.01,688.48,618.65,-1.32,2.53,-1.62,-51.45,34.80,11.85,26.8
2026/05/04 21:48:24.65,IMU,317.38,697.27,630.86,-3.05,4.26,2.44,-51.60,33.90,11.25,26.7
2026/05/04 21:48:24.75,IMU,341.80,691.41,601.07,-0.40,-1.87,2.16,-49.95,34.50,12.15,26.7
2026/05/04 21:48:24.85,IMU,327.64,684.08,594.73,0.69,-2.59,1.24,-50.70,34.50,12.15,26.5
2026/05/04 21:48:24.95,IMU,323.24,683.59,632.81,1.08,-5.23,2.21,-51.60,32.70,10.20,26.6
2026/05/04 21:48:25.06,IMU,321.78,677.73,612.30,-2.40,0.20,3.21,-54.60,30.90,16.35,26.8
2026/05/04 21:48:25.16,IMU,341.31,664.06,611.33,-0.78,2.76,4.11,-52.95,35.25,10.35,26.5
2026/05/04 21:48:25.26,IMU,376.46,682.62,580.57,-2.56,-4.33,0.01,-52.05,33.15,9.90,26.3
2026/05/04 21:48:25.36,IMU,359.86,681.15,586.91,4.13,-2.13,0.26,-52.05,34.35,10.50,26.6
2026/05/04 21:48:25.46,IMU,358.40,690.92,592.29,7.84,-5.21,0.83,-52.05,35.10,10.50,26.4
2026/05/04 21:48:25.56,IMU,371.09,674.32,583.01,8.60,-5.91,0.37,-52.05,33.90,9.15,26.5
2026/05/04 21:48:25.66,IMU,298.34,662.60,691.41,-0.94,3.85,0.15,-52.95,34.50,9.60,26.5
2026/05/04 21:48:25.76,IMU,330.08,654.30,642.58,7.75,-20.58,-7.45,-52.05,33.60,10.95,26.8
2026/05/04 21:48:25.86,IMU,411.62,747.07,575.68,-2.98,-14.47,-1.37,-53.70,33.75,8.25,26.4
2026/05/04 21:48:25.96,IMU,437.01,675.29,508.79,-21.06,-2.14,10.22,-54.75,32.55,7.50,26.6
2026/05/04 21:48:26.06,IMU,419.92,679.20,644.53,-6.31,7.53,5.12,-55.50,32.55,8.25,26.5
2026/05/04 21:48:26.16,IMU,303.71,754.39,522.46,-4.85,20.00,-12.85,-53.70,34.80,8.55,26.3
2026/05/04 21:48:26.26,IMU,409.18,658.69,638.67,-9.90,2.10,-16.27,-52.20,34.50,10.35,26.6
2026/05/04 21:48:26.36,IMU,365.23,686.52,564.45,-0.47,2.18,-25.24,-52.95,34.80,10.35,26.6
2026/05/04 21:48:26.46,IMU,339.84,694.82,656.74,-5.34,7.64,4.95,-51.30,35.40,8.40,26.5
2026/05/04 21:48:26.56,IMU,302.25,676.27,602.54,-6.71,2.15,4.20,-51.60,34.65,10.50,26.6
2026/05/04 21:48:26.66,IMU,301.76,660.16,634.77,-1.44,-6.34,-0.60,-52.80,36.60,10.95,26.5
2026/05/04 21:48:26.76,IMU,309.57,645.02,551.76,-0.92,2.67,-1.50,-51.75,34.80,11.85,26.6
2026/05/04 21:48:26.86,IMU,293.46,673.83,604.00,0.66,17.81,-8.61,-51.00,36.00,11.85,26.7
2026/05/04 21:48:26.97,IMU,296.88,680.18,605.47,3.14,11.18,-7.51,-49.35,34.65,12.45,26.6
2026/05/04 21:48:27.07,IMU,254.88,671.88,656.25,0.31,1.41,0.89,-49.35,35.10,11.70,26.7
2026/05/04 21:48:27.17,IMU,230.96,681.64,699.71,-3.12,5.76,-6.72,-50.40,36.00,12.60,26.7
2026/05/04 21:48:27.27,IMU,236.82,687.01,650.88,-8.21,-0.36,0.50,-49.80,35.85,13.05,26.7
2026/05/04 21:48:27.37,IMU,262.21,722.66,685.06,5.98,7.67,4.41,-47.70,35.55,13.65,26.7
2026/05/04 21:48:27.47,IMU,259.28,678.22,625.98,-1.11,10.36,2.66,-49.20,36.00,13.95,26.4
2026/05/04 21:48:27.57,IMU,207.52,669.43,714.36,-5.50,-1.25,-0.93,-48.45,34.05,14.40,26.7
2026/05/04 21:48:27.67,IMU,219.73,632.81,710.94,-6.73,-0.73,-0.73,-48.00,35.85,13.50,26.8
2026/05/04 21:48:27.77,IMU,238.77,663.09,649.41,-5.85,2.98,0.78,-47.40,34.80,13.95,26.7
2026/05/04 21:48:27.87,IMU,224.12,660.16,684.08,-0.39,-2.19,1.60,-47.55,35.85,14.55,26.8
2026/05/04 21:48:27.98,IMU,217.77,649.41,708.01,2.32,-5.47,1.40,-48.30,35.10,13.80,26.8
2026/05/04 21:48:28.08,IMU,229.98,656.25,702.64,-0.09,-0.45,1.47,-48.30,35.40,13.80,26.8
2026/05/04 21:48:28.19,IMU,207.52,639.65,673.34,-2.60,2.62,-1.38,-48.90,36.00,13.35,26.8
2026/05/04 21:48:28.29,IMU,225.59,642.09,728.03,-1.46,-6.80,1.92,-48.00,35.85,14.55,26.8
2026/05/04 21:48:28.39,IMU,207.03,657.71,710.45,-2.50,0.62,1.24,-49.35,35.10,13.80,26.7
2026/05/04 21:48:28.49,IMU,220.70,640.14,719.24,-3.80,7.33,-3.87,-48.45,34.80,15.15,26.7
2026/05/04 21:48:28.59,IMU,222.17,635.25,685.55,1.31,0.31,0.15,-49.65,35.25,14.40,26.8
2026/05/04 21:48:28.69,IMU,211.91,657.23,728.52,-0.89,2.21,-0.45,-49.80,34.65,14.85,26.7
2026/05/04 21:48:28.79,IMU,241.21,654.79,678.71,1.00,4.26,0.37,-48.45,34.05,15.45,26.6
2026/05/04 21:48:28.89,IMU,234.86,666.02,670.41,2.69,-0.17,1.09,-48.30,35.85,13.80,26.7
2026/05/04 21:48:28.99,IMU,240.23,664.55,700.68,2.51,-3.21,1.79,-47.70,34.50,15.45,26.7
2026/05/04 21:48:29.09,IMU,223.63,640.14,691.89,-4.16,6.80,0.11,-48.75,32.70,15.30,26.7
2026/05/04 21:48:29.19,IMU,240.72,660.16,677.25,1.57,1.35,0.09,-49.20,34.05,15.45,26.8
2026/05/04 21:48:29.29,IMU,226.07,683.59,689.94,-4.27,5.58,3.24,-48.15,35.55,14.70,26.8
2026/05/04 21:48:29.39,IMU,235.35,648.93,675.78,2.55,5.06,-5.55,-48.45,33.75,14.40,26.6
2026/05/04 21:48:29.49,IMU,185.06,683.11,746.58,7.34,-7.83,4.56,-47.25,35.40,14.85,26.5
2026/05/04 21:48:29.59,IMU,191.41,609.38,693.85,-2.13,2.52,0.66,-47.25,35.10,14.55,26.8
2026/05/04 21:48:29.69,IMU,211.91,670.90,693.85,-3.06,-0.21,-0.98,-48.15,35.55,16.20,26.5
2026/05/04 21:48:29.81,IMU,224.61,668.46,712.89,0.02,0.92,2.66,-46.80,35.40,13.50,26.8
2026/05/04 21:48:29.91,IMU,213.87,645.51,695.80,-0.93,1.63,-2.79,-47.40,33.75,15.45,26.7
2026/05/04 21:48:30.01,IMU,213.38,645.02,697.75,2.82,-1.70,2.02,-46.50,35.10,15.60,26.6
2026/05/04 21:48:30.11,IMU,204.59,652.83,689.45,-0.07,-2.24,0.88,-48.15,34.50,14.70,26.4
2026/05/04 21:48:30.21,IMU,225.10,661.62,679.20,0.34,2.07,0.69,-48.45,35.25,14.70,26.8
2026/05/04 21:48:30.31,IMU,218.75,658.20,674.80,1.18,3.00,0.63,-48.45,34.05,14.40,26.4
2026/05/04 21:48:30.41,IMU,231.45,644.53,698.73,1.67,-3.05,0.24,-49.65,34.50,14.70,26.7
2026/05/04 21:48:30.51,IMU,220.70,648.93,685.55,-0.58,4.85,-1.92,-48.45,34.50,15.15,26.6
2026/05/04 21:48:30.61,IMU,224.12,663.09,701.66,-0.73,-2.53,0.03,-48.90,35.25,13.65,26.7
2026/05/04 21:48:30.71,IMU,215.82,661.62,700.20,0.94,-0.97,-3.60,-48.30,34.35,15.60,26.7
2026/05/04 21:48:30.81,IMU,212.89,658.69,696.78,-2.61,0.73,1.07,-49.05,34.35,13.50,26.7
2026/05/04 21:48:30.91,IMU,211.43,669.92,694.34,0.95,-1.18,-0.80,-48.75,34.35,14.55,26.8
2026/05/04 21:48:31.01,IMU,208.01,652.34,693.85,0.98,-0.30,-0.74,-49.05,33.90,14.55,26.6
2026/05/04 21:48:31.11,IMU,219.73,649.41,696.78,3.83,-0.54,1.57,-48.00,35.40,15.30,26.7
2026/05/04 21:48:31.21,IMU,226.56,642.58,697.27,-0.59,0.51,3.59,-48.30,35.10,15.60,26.7
2026/05/04 21:48:31.31,IMU,225.10,633.79,692.38,2.44,-0.18,1.18,-48.00,33.90,14.55,26.8
2026/05/04 21:48:31.41,IMU,242.68,678.22,709.96,1.47,1.69,1.79,-48.90,33.75,14.70,26.7
2026/05/04 21:48:31.51,IMU,214.36,641.60,690.43,-0.79,-1.69,-0.87,-48.00,33.90,15.60,26.9
2026/05/04 21:48:31.61,IMU,221.19,649.41,682.62,-0.70,1.37,-1.12,-48.30,33.60,15.60,26.6
2026/05/04 21:48:31.71,IMU,216.80,663.57,662.11,-1.02,2.39,0.38,-48.30,33.60,14.85,26.7
2026/05/04 21:48:31.81,IMU,229.00,664.06,702.64,-1.69,2.28,0.31,-49.20,34.05,13.65,26.6
2026/05/04 21:48:31.91,IMU,231.93,661.62,692.87,-1.54,1.13,-0.09,-48.75,33.90,14.25,26.6
2026/05/04 21:48:32.01,IMU,227.05,661.13,687.50,0.97,-0.17,-1.28,-48.45,36.00,13.95,26.7
2026/05/04 21:48:32.11,IMU,224.61,660.16,690.92,1.63,-0.81,0.44,-48.15,34.50,14.40,26.7
2026/05/04 21:48:32.21,IMU,213.38,656.25,703.61,1.76,-1.53,-0.10,-48.30,36.15,16.05,26.8
2026/05/04 21:48:32.31,IMU,209.96,640.14,698.24,-0.95,0.17,-1.08,-47.55,34.65,13.80,26.4
2026/05/04 21:48:32.41,IMU,220.21,665.04,704.10,1.61,-1.36,-0.37,-48.45,34.05,14.70,26.8
2026/05/04 21:48:32.51,IMU,205.08,649.90,702.64,-1.13,2.08,0.51,-48.75,34.35,16.35,26.8
2026/05/04 21:48:32.61,IMU,222.17,659.18,705.08,0.94,0.69,2.03,-47.70,35.25,14.40,26.6
2026/05/04 21:48:32.71,IMU,229.00,663.09,697.75,0.21,0.52,-1.79,-47.40,34.05,14.70,26.9
2026/05/04 21:48:32.81,IMU,221.68,661.13,699.22,-0.79,2.57,1.77,-48.45,33.75,14.40,26.6
2026/05/04 21:48:32.92,IMU,215.33,659.67,695.80,-0.55,-1.37,-0.87,-48.15,34.05,14.40,26.8
2026/05/04 21:48:33.02,IMU,226.07,652.34,708.01,2.21,0.92,-1.16,-48.00,33.90,14.55,26.8
2026/05/04 21:48:33.12,IMU,225.10,652.83,675.29,-1.11,0.10,2.33,-48.75,33.60,14.85,26.8
2026/05/04 21:48:33.22,IMU,234.86,648.93,695.31,1.18,0.11,0.50,-50.40,31.80,17.25,26.5
2026/05/04 21:48:33.32,IMU,228.03,654.79,714.36,1.59,-2.50,4.42,-47.70,36.45,13.65,26.6
2026/05/04 21:48:33.42,IMU,219.24,658.20,698.24,-0.18,-1.79,0.82,-48.75,34.65,14.25,26.8
2026/05/04 21:48:33.52,IMU,233.40,656.25,705.08,1.73,-0.87,2.34,-47.10,33.30,13.65,26.3
2026/05/04 21:48:33.62,IMU,234.38,641.11,699.71,-0.16,1.50,1.57,-47.40,34.50,13.35,26.5
2026/05/04 21:48:33.72,IMU,227.54,662.60,695.31,1.47,-2.32,2.54,-48.15,34.50,14.70,26.5
2026/05/04 21:48:33.82,IMU,230.47,671.39,693.85,0.12,-2.66,0.88,-47.55,34.65,14.25,26.9
2026/05/04 21:48:33.93,IMU,212.89,649.90,680.66,1.58,-0.93,1.23,-48.90,34.05,14.70,26.7
2026/05/04 21:48:34.03,IMU,244.14,643.07,676.27,1.85,1.18,1.77,-49.20,34.80,14.40,26.5
2026/05/04 21:48:34.13,IMU,211.43,659.18,697.27,-1.88,-0.46,-1.43,-47.10,35.55,14.70,26.7
2026/05/04 21:48:34.24,IMU,222.66,653.32,684.08,-0.15,-1.34,0.90,-50.40,33.30,18.00,26.8
2026/05/04 21:48:34.34,IMU,233.40,666.02,692.87,-1.24,-0.60,3.00,-49.05,35.40,14.85,26.7
2026/05/04 21:48:34.44,IMU,218.26,657.23,682.62,1.82,1.51,-2.83,-48.45,34.50,14.70,26.8
2026/05/04 21:48:34.54,IMU,217.77,659.67,712.40,0.89,-0.72,-1.37,-49.80,33.60,14.55,26.8
2026/05/04 21:48:34.64,IMU,236.33,658.20,678.71,1.76,0.73,1.61,-49.05,34.65,14.55,26.8
2026/05/04 21:48:34.74,IMU,207.52,643.55,701.17,1.27,0.94,-1.65,-48.15,34.80,14.40,26.7
2026/05/04 21:48:34.84,IMU,238.28,655.27,691.89,0.01,-3.88,1.56,-48.75,33.90,14.85,26.7
2026/05/04 21:48:34.94,IMU,218.75,659.18,709.47,-0.05,-2.61,1.58,-47.25,35.40,13.05,26.8
2026/05/04 21:48:35.04,IMU,224.12,656.74,695.80,-1.59,-0.48,0.69,-48.90,36.00,12.90,26.4
2026/05/04 21:48:35.14,IMU,236.82,647.46,688.96,0.20,3.06,2.60,-48.30,33.60,14.25,26.6
2026/05/04 21:48:35.25,IMU,229.49,643.55,678.71,-1.56,-1.47,-2.15,-50.85,32.70,18.90,26.6
2026/05/04 21:48:35.35,IMU,230.47,659.18,699.22,-0.58,0.34,0.56,-49.35,35.10,13.50,26.6
2026/05/04 21:48:35.45,IMU,244.14,661.13,680.18,2.03,1.20,-0.89,-50.55,34.65,14.85,26.5
2026/05/04 21:48:35.55,IMU,226.56,661.13,723.14,2.45,4.76,-0.39,-48.30,35.10,13.05,26.8
2026/05/04 21:48:35.65,IMU,244.63,673.83,676.27,1.56,0.84,-0.76,-48.75,35.40,13.50,26.5
2026/05/04 21:48:35.75,IMU,212.40,658.69,692.38,-0.28,2.24,0.98,-49.65,34.80,14.70,26.8
2026/05/04 21:48:35.85,IMU,225.59,660.64,690.92,2.82,-2.61,0.12,-49.35,35.10,12.75,26.4
2026/05/04 21:48:35.95,IMU,218.26,670.41,676.76,0.88,1.10,-3.24,-47.55,35.10,14.25,26.7
2026/05/04 21:48:36.05,IMU,222.66,660.16,680.66,0.08,-0.69,-0.40,-47.70,35.55,14.40,26.5
2026/05/04 21:48:36.15,IMU,240.72,653.32,684.08,-1.66,1.76,-1.97,-48.90,35.25,13.95,26.6
2026/05/04 21:48:36.25,IMU,226.56,662.11,684.57,2.18,-2.40,2.97,-49.65,33.60,14.55,26.7
2026/05/04 21:48:36.35,IMU,228.03,666.50,688.96,2.30,-0.17,0.20,-48.45,33.30,14.40,26.7
2026/05/04 21:48:36.45,IMU,234.86,664.06,686.04,0.08,-0.84,-2.63,-49.05,35.10,14.25,27.0
2026/05/04 21:48:36.55,IMU,218.75,667.48,677.25,1.66,1.15,-1.02,-49.20,35.25,14.70,26.8
2026/05/04 21:48:36.65,IMU,235.35,661.13,684.57,-0.21,-2.66,-2.01,-50.55,35.85,12.75,26.9
2026/05/04 21:48:36.75,IMU,223.14,664.55,689.94,0.93,-0.75,1.06,-48.90,35.55,15.45,26.7
2026/05/04 21:48:36.85,IMU,234.86,674.80,703.61,1.13,1.01,2.69,-49.20,34.80,14.40,26.6
2026/05/04 21:48:36.95,IMU,226.07,666.99,690.43,1.31,-1.98,-0.18,-48.00,34.35,14.55,26.7
2026/05/04 21:48:37.05,IMU,227.05,663.09,672.85,0.26,1.98,-1.51,-47.55,34.65,12.45,26.6
2026/05/04 21:48:37.15,IMU,219.73,664.55,665.53,3.38,2.66,3.85,-48.45,36.45,14.70,26.7
2026/05/04 21:48:37.26,IMU,233.40,653.81,687.01,0.17,1.83,2.02,-50.40,36.75,13.95,26.7
2026/05/04 21:48:37.36,IMU,225.59,670.90,686.04,3.69,0.06,-0.21,-48.45,34.80,13.95,26.7
2026/05/04 21:48:37.46,IMU,223.14,671.39,686.52,1.13,-0.37,4.02,-49.95,33.30,13.95,26.8
2026/05/04 21:48:37.56,IMU,226.07,656.74,680.18,1.90,0.67,0.48,-48.00,35.10,14.25,26.7
2026/05/04 21:48:37.66,IMU,225.59,670.90,691.41,-0.33,1.34,-2.10,-48.30,35.10,14.25,26.8
2026/05/04 21:48:37.76,IMU,232.91,658.69,684.57,3.47,-6.06,2.79,-48.90,35.55,13.65,26.8
2026/05/04 21:48:37.86,IMU,232.91,655.76,681.15,0.40,1.01,1.78,-47.25,34.35,14.25,26.4
2026/05/04 21:48:37.96,IMU,232.42,664.06,672.36,1.77,-2.15,0.75,-48.15,36.00,13.95,26.7
2026/05/04 21:48:38.06,IMU,244.63,662.11,656.25,-0.34,-4.85,2.95,-48.90,35.25,13.35,26.8
2026/05/04 21:48:38.16,IMU,229.00,669.43,691.41,-0.67,-0.66,1.53,-48.00,33.90,13.50,26.6
2026/05/04 21:48:38.26,IMU,232.91,657.71,674.32,-0.31,-1.55,1.13,-50.55,34.35,13.80,26.8
2026/05/04 21:48:38.36,IMU,223.14,664.06,682.13,-0.27,-1.38,0.05,-49.80,34.65,14.25,26.4
2026/05/04 21:48:38.46,IMU,240.23,663.09,683.11,-0.11,-0.25,0.53,-49.65,36.00,13.95,26.8
2026/05/04 21:48:38.56,IMU,227.05,669.92,681.15,0.65,0.93,0.66,-48.90,36.00,12.60,26.8
2026/05/04 21:48:38.66,IMU,239.75,667.48,690.43,-1.69,1.11,-2.90,-49.65,35.55,14.70,26.8
2026/05/04 21:48:38.76,IMU,241.21,672.85,680.66,-1.53,0.95,0.83,-49.65,34.80,13.35,26.7
2026/05/04 21:48:38.86,IMU,226.56,677.73,679.20,0.26,0.47,-0.89,-49.80,34.65,14.25,26.7
2026/05/04 21:48:38.96,IMU,230.47,655.76,664.06,-1.76,3.18,0.36,-49.80,35.10,13.80,27.1
2026/05/04 21:48:39.06,IMU,236.82,683.11,694.34,0.00,2.95,-0.12,-48.90,35.55,13.95,26.8
2026/05/04 21:48:39.16,IMU,248.54,666.50,681.15,-0.31,2.40,2.78,-49.80,35.85,14.25,26.8
2026/05/04 21:48:39.26,IMU,230.47,667.97,671.39,2.37,-1.02,-2.57,-47.70,34.50,13.95,26.8
2026/05/04 21:48:39.36,IMU,228.52,659.67,679.69,1.66,0.31,0.69,-50.40,36.75,12.90,26.8
2026/05/04 21:48:39.46,IMU,229.98,675.78,690.92,-1.34,1.98,-0.50,-49.05,35.40,14.55,26.7
2026/05/04 21:48:39.56,IMU,230.47,666.02,686.04,1.24,-0.41,-1.60,-48.15,36.75,13.35,26.8
2026/05/04 21:48:39.66,IMU,221.68,667.48,694.82,1.28,0.52,0.85,-48.15,36.00,13.95,26.8
2026/05/04 21:48:39.76,IMU,221.68,658.69,672.85,1.69,-0.27,0.15,-48.45,35.25,13.65,26.6
2026/05/04 21:48:39.87,IMU,236.82,658.20,683.11,1.85,1.36,-0.59,-48.00,34.65,13.80,27.0
2026/05/04 21:48:39.97,IMU,234.38,654.79,684.08,-0.22,2.42,-1.19,-48.45,36.00,13.35,26.7
2026/05/04 21:48:40.07,IMU,239.75,660.64,668.46,2.34,-0.11,1.44,-49.80,35.10,14.25,26.8
2026/05/04 21:48:40.17,IMU,220.70,669.43,698.73,-0.86,1.40,0.11,-48.90,36.75,13.35,26.9
2026/05/04 21:48:40.27,IMU,221.68,678.71,688.96,-0.54,1.18,-2.76,-49.20,36.00,14.40,26.6
2026/05/04 21:48:40.37,IMU,224.61,679.20,684.57,0.55,-1.56,3.52,-48.00,35.10,14.25,27.0
2026/05/04 21:48:40.47,IMU,233.89,673.34,670.90,0.35,0.05,-1.69,-48.75,34.65,13.05,27.0
2026/05/04 21:48:40.57,IMU,236.33,667.97,678.22,0.21,-1.22,-3.32,-48.45,34.50,13.65,26.8
2026/05/04 21:48:40.67,IMU,229.98,665.04,669.92,2.93,-1.55,0.12,-48.30,35.40,14.55,26.8
2026/05/04 21:48:40.77,IMU,231.45,670.90,696.29,-1.21,-1.40,-1.98,-49.35,35.40,14.25,26.8
2026/05/04 21:48:40.87,IMU,218.75,675.29,702.15,-0.58,0.92,-5.01,-49.65,35.25,13.35,26.8
2026/05/04 21:48:40.97,IMU,228.52,664.55,682.62,0.50,0.99,-2.86,-49.95,37.50,13.65,27.1
2026/05/04 21:48:41.07,IMU,229.98,667.48,681.15,0.20,0.97,-2.79,-50.40,35.25,13.65,27.1
2026/05/04 21:48:41.17,IMU,246.58,659.67,678.22,0.65,-2.21,-2.61,-48.90,35.25,13.95,26.7
2026/05/04 21:48:41.28,IMU,231.45,667.97,680.18,1.48,-1.47,-0.74,-48.45,34.50,12.90,26.9
2026/05/04 21:48:41.38,IMU,238.77,672.85,683.11,-1.36,0.84,0.50,-51.45,33.75,16.50,26.8
2026/05/04 21:48:41.48,IMU,235.84,666.50,684.08,0.01,0.39,-0.82,-50.10,35.40,13.50,26.8
2026/05/04 21:48:41.58,IMU,233.40,670.41,683.11,-0.62,-0.73,-2.97,-47.40,36.00,13.35,26.7
2026/05/04 21:48:41.68,IMU,223.14,664.06,681.64,-0.05,-3.34,1.29,-48.30,35.85,12.75,27.0
2026/05/04 21:48:41.78,IMU,243.16,669.92,680.66,-3.44,0.95,-2.58,-49.95,34.05,14.40,26.8
2026/05/04 21:48:41.88,IMU,219.73,665.04,677.73,-1.05,0.71,0.62,-48.75,34.65,14.55,26.8
2026/05/04 21:48:41.98,IMU,235.84,664.06,691.89,4.67,-2.03,0.53,-49.35,35.85,14.85,26.9
2026/05/04 21:48:42.08,IMU,225.59,661.62,679.20,2.64,-1.58,-2.39,-48.15,35.55,13.65,26.8
2026/05/04 21:48:42.18,IMU,230.47,666.99,684.57,-1.51,-0.78,-1.62,-47.70,36.00,13.35,26.9
2026/05/04 21:48:42.28,IMU,239.75,666.02,683.59,1.51,-0.64,-0.97,-49.35,35.10,14.55,26.8
2026/05/04 21:48:42.38,IMU,229.00,663.09,689.45,0.29,0.22,-0.40,-47.70,32.25,16.20,26.9
2026/05/04 21:48:42.48,IMU,229.98,661.13,666.99,2.13,0.48,0.86,-49.95,35.25,13.95,26.8
2026/05/04 21:48:42.58,IMU,230.47,667.48,681.64,1.34,0.95,3.89,-48.90,35.25,13.65,26.8
2026/05/04 21:48:42.68,IMU,229.00,678.71,698.24,2.20,-0.37,0.84,-47.70,35.25,14.70,26.5
2026/05/04 21:48:42.78,IMU,232.42,659.67,697.75,-1.83,0.85,0.72,-49.65,35.55,12.90,26.8
2026/05/04 21:48:42.88,IMU,238.28,668.95,669.92,-1.27,-1.34,2.07,-49.35,35.85,13.50,26.7
2026/05/04 21:48:42.98,IMU,242.68,661.62,667.97,1.37,-0.78,1.99,-47.70,34.05,13.95,26.9
2026/05/04 21:48:43.08,IMU,237.79,667.48,673.34,-0.87,1.24,-1.11,-48.15,34.50,13.95,26.8
2026/05/04 21:48:43.18,IMU,227.05,682.62,671.88,0.43,-1.91,-0.96,-48.15,36.45,13.65,26.8
2026/05/04 21:48:43.29,IMU,234.38,650.39,676.76,-1.47,0.24,1.42,-49.80,36.15,14.25,26.8
2026/05/04 21:48:43.39,IMU,247.07,661.13,666.50,0.98,0.21,0.97,-49.20,37.20,13.35,27.0
2026/05/04 21:48:43.49,IMU,225.59,675.29,677.73,1.22,1.12,-0.52,-49.80,35.40,14.25,26.8
2026/05/04 21:48:43.59,IMU,234.86,668.95,689.45,-1.44,3.80,0.05,-49.80,34.65,14.25,27.0
2026/05/04 21:48:43.69,IMU,230.47,678.71,675.29,0.08,0.82,1.61,-48.15,34.80,12.15,26.8
2026/05/04 21:48:43.79,IMU,235.84,660.16,687.50,0.38,1.37,1.15,-49.65,35.25,14.40,26.7
2026/05/04 21:48:43.89,IMU,243.16,670.90,684.08,1.84,2.97,-1.47,-49.95,36.00,12.90,26.9
2026/05/04 21:48:44.00,IMU,230.47,666.50,682.62,-0.12,-3.63,2.44,-46.80,34.65,14.25,26.8
2026/05/04 21:48:44.10,IMU,245.61,661.13,681.64,-0.64,0.88,0.90,-48.75,34.35,13.80,26.8
2026/05/04 21:48:44.20,IMU,232.42,667.97,680.66,-0.08,-0.71,2.05,-49.65,36.75,13.65,27.0
2026/05/04 21:48:44.30,IMU,243.16,658.20,678.71,-1.53,3.24,2.32,-48.15,34.05,14.70,26.9
2026/05/04 21:48:44.40,IMU,226.56,676.76,687.99,-1.24,-0.38,-0.56,-48.30,35.85,12.75,26.6
2026/05/04 21:48:44.50,IMU,250.00,668.46,677.25,-0.61,-1.47,-0.28,-49.35,35.85,12.75,26.8
2026/05/04 21:48:44.60,IMU,235.35,676.76,685.06,-2.65,0.22,-0.10,-49.65,36.45,12.60,26.9
2026/05/04 21:48:44.70,IMU,251.95,660.16,671.88,-0.22,0.82,-0.19,-49.35,35.10,13.05,26.8
2026/05/04 21:48:44.80,IMU,227.05,651.37,684.57,0.22,-2.63,-1.04,-48.30,34.65,12.75,26.8
2026/05/04 21:48:44.90,IMU,234.86,667.97,695.80,0.38,0.55,2.21,-48.15,33.75,13.95,26.8
2026/05/04 21:48:45.00,IMU,226.07,670.90,678.22,-0.72,-0.45,-0.85,-49.80,33.90,12.45,26.8
2026/05/04 21:48:45.10,IMU,251.46,672.85,678.71,1.23,0.90,2.97,-48.90,36.00,12.15,26.7
2026/05/04 21:48:45.20,IMU,243.65,677.25,683.11,1.15,-2.57,-1.95,-48.15,34.05,12.60,27.0
2026/05/04 21:48:45.30,IMU,233.89,668.95,683.59,-0.95,0.11,-1.50,-50.55,35.40,13.50,26.9
2026/05/04 21:48:45.40,IMU,237.79,657.71,673.83,1.22,0.27,0.11,-48.90,35.55,13.35,27.0
2026/05/04 21:48:45.50,IMU,236.82,684.08,687.50,0.56,-0.47,-4.53,-48.75,33.60,13.50,27.0
2026/05/04 21:48:45.60,IMU,242.68,666.99,683.59,-1.16,0.72,0.58,-48.75,35.85,13.50,27.3
2026/05/04 21:48:45.70,IMU,238.28,684.08,691.89,-0.72,2.98,-1.67,-49.20,34.80,15.15,26.8
2026/05/04 21:48:45.82,IMU,220.70,671.39,678.22,0.46,0.24,2.00,-49.80,33.60,13.50,27.2
2026/05/04 21:48:45.92,IMU,239.26,661.13,682.13,1.72,0.39,-1.06,-49.20,34.80,13.65,27.1
2026/05/04 21:48:46.02,IMU,237.79,649.90,670.41,-0.80,3.28,-3.14,-49.20,34.50,12.90,27.1
2026/05/04 21:48:46.12,IMU,228.52,673.83,682.62,-1.73,-1.18,2.26,-47.10,37.20,13.65,27.3
2026/05/04 21:48:46.22,IMU,219.73,663.09,690.92,0.53,2.89,-1.59,-48.30,36.60,13.05,27.2
2026/05/04 21:48:46.32,IMU,225.59,658.69,668.95,-0.35,2.83,-1.18,-48.45,35.25,13.65,26.9
2026/05/04 21:48:46.42,IMU,240.23,662.60,683.11,0.56,0.89,1.27,-49.35,35.40,12.75,26.8
2026/05/04 21:48:46.52,IMU,229.49,662.11,687.99,-1.80,1.37,1.75,-47.40,34.80,13.95,27.1
2026/05/04 21:48:46.62,IMU,227.54,664.06,678.22,-1.08,0.91,-0.84,-48.90,35.25,13.95,26.8
2026/05/04 21:48:46.72,IMU,244.63,668.95,701.17,0.28,2.73,1.44,-49.20,35.55,13.35,26.8
2026/05/04 21:48:46.82,IMU,232.91,662.60,679.69,-0.78,3.69,-1.31,-50.70,33.75,13.95,26.9
2026/05/04 21:48:46.92,IMU,229.00,678.71,693.36,-0.97,3.69,-1.75,-49.95,35.25,12.90,26.7
2026/05/04 21:48:47.02,IMU,237.30,671.39,685.55,-1.53,1.90,3.02,-49.05,36.15,14.25,27.0
2026/05/04 21:48:47.12,IMU,232.91,674.80,683.11,1.70,-1.99,0.67,-49.80,35.85,13.05,27.0
2026/05/04 21:48:47.22,IMU,229.49,665.53,684.57,-0.63,-1.24,0.96,-50.10,35.85,13.05,26.8
2026/05/04 21:48:47.32,IMU,221.68,658.20,687.01,0.80,0.77,-1.54,-50.10,35.10,14.85,27.1
2026/05/04 21:48:47.42,IMU,229.98,675.78,670.90,-3.02,1.50,2.24,-49.20,35.55,13.95,27.1
2026/05/04 21:48:47.52,IMU,245.61,660.16,667.97,0.13,1.60,-1.34,-48.90,35.55,13.95,26.8
2026/05/04 21:48:47.62,IMU,220.21,666.50,666.99,2.78,-0.63,0.80,-48.15,34.50,12.90,27.0
2026/05/04 21:48:47.72,IMU,228.03,663.57,689.94,-1.37,-1.75,-0.92,-50.10,35.40,13.80,26.8
2026/05/04 21:48:47.82,IMU,238.28,659.67,670.41,1.31,-0.84,0.99,-49.95,34.80,14.40,26.7
2026/05/04 21:48:47.92,IMU,245.12,665.53,680.66,2.21,-2.05,0.69,-49.20,35.25,15.45,27.0
2026/05/04 21:48:48.02,IMU,232.91,664.06,695.31,2.18,-0.60,1.47,-49.65,35.25,14.40,27.0
2026/05/04 21:48:48.12,IMU,227.54,673.34,676.76,-0.69,0.86,0.97,-47.55,34.35,12.45,26.9
2026/05/04 21:48:48.23,IMU,225.59,670.41,663.57,-0.50,1.15,1.69,-48.75,35.10,12.75,27.3
2026/05/04 21:48:48.33,IMU,241.70,675.78,681.15,-0.08,-1.62,-3.01,-47.70,35.25,13.35,27.1
2026/05/04 21:48:48.43,IMU,231.93,674.80,659.67,-1.66,3.17,-1.30,-50.85,35.85,13.80,27.0
2026/05/04 21:48:48.53,IMU,225.10,674.32,685.55,0.92,-1.43,-1.75,-49.65,34.50,12.90,26.9
2026/05/04 21:48:48.63,IMU,229.98,664.06,685.55,0.42,-1.43,-1.57,-49.05,35.10,13.50,26.9
2026/05/04 21:48:48.73,IMU,224.12,670.90,693.36,-0.59,0.95,1.76,-49.05,35.85,15.30,27.0
2026/05/04 21:48:48.83,IMU,238.77,667.48,677.73,3.58,1.33,1.49,-48.75,35.10,13.80,27.1
2026/05/04 21:48:48.93,IMU,241.21,673.83,678.22,1.17,-3.22,1.21,-47.40,36.45,13.95,27.0
2026/05/04 21:48:49.03,IMU,239.26,674.80,689.45,-0.34,0.21,2.15,-50.10,35.40,13.50,27.1
2026/05/04 21:48:49.13,IMU,225.10,663.57,688.96,0.84,-0.97,0.87,-48.15,36.00,13.95,27.0
2026/05/04 21:48:49.23,IMU,242.68,665.53,677.73,3.94,-0.65,2.16,-49.65,35.55,13.65,27.1
2026/05/04 21:48:49.33,IMU,233.89,669.92,678.22,-0.47,-1.03,1.89,-49.05,37.35,13.05,26.9
2026/05/04 21:48:49.43,IMU,236.33,662.60,666.02,0.58,-0.83,-4.15,-49.20,36.00,12.90,27.1
2026/05/04 21:48:49.53,IMU,224.61,666.50,677.25,2.47,3.00,-0.56,-49.80,36.90,13.80,26.8
2026/05/04 21:48:49.63,IMU,235.84,669.92,673.34,1.98,-2.45,0.12,-49.05,35.10,13.05,27.1
2026/05/04 21:48:49.73,IMU,239.26,665.04,682.13,1.60,0.30,0.47,-48.30,35.10,14.55,26.9
2026/05/04 21:48:49.83,IMU,232.42,671.88,664.06,1.10,-1.37,0.72,-49.65,35.25,14.40,27.1
2026/05/04 21:48:49.95,IMU,231.93,666.02,664.06,-0.17,-0.45,-1.03,-48.30,33.60,14.25,27.0
2026/05/04 21:48:50.05,IMU,226.07,676.27,672.36,0.78,0.05,-1.04,-49.35,35.40,13.80,27.0
2026/05/04 21:48:50.15,IMU,250.98,668.95,677.73,1.18,-0.35,1.48,-47.40,36.00,13.95,27.2
2026/05/04 21:48:50.25,IMU,240.72,670.90,688.48,0.25,0.15,-3.29,-49.20,34.80,13.65,27.2
2026/05/04 21:48:50.35,IMU,226.56,673.34,680.18,0.72,-0.29,-3.21,-49.05,34.65,14.85,27.0
2026/05/04 21:48:50.45,IMU,241.70,682.62,664.06,1.65,-1.32,0.60,-49.35,34.65,13.05,27.1
2026/05/04 21:48:50.55,IMU,219.73,682.13,683.11,-0.93,3.02,-2.56,-50.85,34.65,17.85,26.9
2026/05/04 21:48:50.65,IMU,234.86,666.99,682.62,1.55,-1.21,0.88,-49.20,36.75,13.95,27.2
2026/05/04 21:48:50.75,IMU,220.21,668.46,687.01,0.68,-1.34,-0.35,-50.10,35.40,14.25,27.2
2026/05/04 21:48:50.85,IMU,226.56,674.32,676.76,-0.55,3.90,-1.92,-48.90,35.25,14.40,27.2
2026/05/04 21:48:50.95,IMU,227.54,675.78,673.83,-0.24,-4.11,1.05,-48.90,36.00,12.90,27.1
2026/05/04 21:48:51.05,IMU,218.75,662.60,698.73,0.40,1.84,1.14,-48.75,35.85,14.55,26.9
2026/05/04 21:48:51.15,IMU,218.75,667.48,666.02,1.75,-4.50,0.69,-48.45,35.25,13.65,27.0
2026/05/04 21:48:51.25,IMU,235.35,673.34,688.96,-0.18,1.08,-1.31,-47.70,35.25,13.65,27.1
2026/05/04 21:48:51.35,IMU,222.17,673.83,687.99,-0.95,-0.85,-1.69,-48.30,35.85,13.80,27.1
2026/05/04 21:48:51.45,IMU,221.19,681.15,676.76,0.82,0.05,0.76,-50.40,34.50,12.90,27.1
2026/05/04 21:48:51.55,IMU,234.86,657.71,667.48,3.76,-0.98,3.73,-53.70,32.25,18.75,27.0
2026/05/04 21:48:51.65,IMU,218.26,655.27,681.64,2.88,-2.34,2.31,-48.30,35.40,13.50,27.0
2026/05/04 21:48:51.75,IMU,231.93,659.18,676.76,-0.20,-1.46,0.82,-48.75,34.35,12.45,27.0
2026/05/04 21:48:51.85,IMU,236.82,675.29,665.53,-1.01,-0.44,0.76,-49.05,35.10,13.80,27.1
2026/05/04 21:48:51.95,IMU,228.03,661.62,679.20,1.18,0.08,-1.76,-47.55,35.10,13.80,27.1
2026/05/04 21:48:52.05,IMU,245.61,682.62,661.13,0.34,0.07,0.61,-48.90,36.00,14.70,27.1
2026/05/04 21:48:52.15,IMU,212.40,674.80,679.69,0.72,2.40,-1.08,-49.35,36.15,12.00,27.0
2026/05/04 21:48:52.26,IMU,241.21,659.18,654.79,0.09,-0.54,1.69,-48.75,36.90,13.05,27.2
2026/05/04 21:48:52.36,IMU,216.80,671.39,680.66,-0.28,-0.50,0.46,-47.40,36.00,13.95,27.3
2026/05/04 21:48:52.46,IMU,237.79,668.95,675.29,2.41,-3.22,-0.40,-48.45,34.50,12.15,27.0
2026/05/04 21:48:52.56,IMU,239.26,677.25,680.66,0.12,2.31,0.30,-48.90,35.55,12.60,27.5
2026/05/04 21:48:52.66,IMU,226.07,666.50,666.02,-0.58,0.50,-1.98,-49.05,34.65,13.05,26.9
2026/05/04 21:48:52.76,IMU,230.47,676.76,686.04,0.42,0.85,1.61,-49.80,35.40,13.50,27.1
2026/05/04 21:48:52.86,IMU,214.36,663.09,677.25,0.64,0.59,2.85,-49.05,33.90,13.50,27.2
2026/05/04 21:48:52.96,IMU,232.42,669.43,664.06,0.79,-1.53,0.88,-48.90,36.45,13.95,27.1
2026/05/04 21:48:53.06,IMU,234.38,679.20,675.29,0.18,-0.02,-3.76,-49.35,36.15,13.05,27.0
2026/05/04 21:48:53.16,IMU,233.40,668.95,671.39,1.08,-2.87,-0.11,-49.20,37.20,12.90,27.2
2026/05/04 21:48:53.26,IMU,225.10,675.78,685.06,-1.47,1.10,-1.39,-49.05,36.60,13.50,26.8
2026/05/04 21:48:53.36,IMU,208.98,652.34,676.76,1.47,-1.79,-1.98,-49.05,34.65,13.80,27.2
2026/05/04 21:48:53.46,IMU,221.68,668.95,684.57,2.92,-0.60,1.21,-49.35,37.65,12.75,27.3
2026/05/04 21:48:53.56,IMU,224.61,669.43,669.43,-0.50,3.21,0.50,-47.55,34.65,13.50,27.3
2026/05/04 21:48:53.66,IMU,220.21,666.99,677.73,1.81,-0.71,0.59,-47.55,36.90,14.55,27.3
2026/05/04 21:48:53.76,IMU,229.98,665.53,683.59,0.23,2.26,-1.27,-48.00,36.15,12.75,27.1
2026/05/04 21:48:53.86,IMU,240.23,684.08,673.34,1.79,-0.69,-2.44,-49.05,34.65,12.45,27.5
2026/05/04 21:48:53.96,IMU,231.45,669.92,689.94,-0.11,-0.82,1.34,-48.75,37.65,14.25,27.0
2026/05/04 21:48:54.06,IMU,219.73,683.11,675.78,2.99,-0.34,1.98,-47.70,34.80,13.95,27.3
2026/05/04 21:48:54.16,IMU,229.00,683.11,681.64,1.09,1.02,3.95,-49.80,37.35,13.80,26.9
2026/05/04 21:48:54.26,IMU,230.47,665.53,692.38,-0.08,1.44,-1.93,-48.75,34.65,14.25,27.2
2026/05/04 21:48:54.36,IMU,222.17,668.95,669.92,-0.48,-0.02,-0.44,-49.35,35.10,14.55,27.1
2026/05/04 21:48:54.46,IMU,225.59,671.39,685.55,0.79,1.39,2.02,-48.30,35.10,13.05,27.3
2026/05/04 21:48:54.56,IMU,213.87,690.43,676.76,0.39,0.81,-0.11,-48.30,35.40,14.55,27.2
2026/05/04 21:48:54.66,IMU,219.24,671.88,678.22,-0.37,3.31,1.50,-48.30,35.40,14.25,27.2
2026/05/04 21:48:54.76,IMU,224.61,668.46,663.57,-0.80,3.44,1.89,-49.05,36.15,12.45,27.2
2026/05/04 21:48:54.86,IMU,252.44,668.95,677.73,1.00,-0.07,0.14,-52.20,32.55,17.55,27.3
2026/05/04 21:48:54.96,IMU,226.56,658.20,675.78,1.71,0.27,-4.52,-50.10,35.10,12.00,27.3
2026/05/04 21:48:55.06,IMU,232.91,670.41,659.18,0.82,0.53,0.44,-47.70,35.55,13.35,27.3
2026/05/04 21:48:55.17,IMU,232.91,674.80,666.99,0.05,0.82,3.08,-49.65,35.55,13.95,27.3
2026/05/04 21:48:55.27,IMU,229.98,668.46,678.71,-1.56,0.95,-1.63,-49.65,34.80,13.65,27.2
2026/05/04 21:48:55.37,IMU,223.14,659.18,692.38,0.31,0.84,2.27,-49.35,36.15,12.45,27.3
2026/05/04 21:48:55.47,IMU,225.10,665.04,673.34,1.56,-0.47,0.81,-49.05,34.35,13.80,27.1
2026/05/04 21:48:55.57,IMU,223.14,664.06,679.69,1.13,-3.63,-0.11,-48.15,35.25,14.40,27.3
2026/05/04 21:48:55.67,IMU,227.54,669.43,680.18,1.82,-0.23,1.15,-48.00,35.40,13.80,27.1
2026/05/04 21:48:55.77,IMU,217.77,672.36,663.57,-0.89,-0.59,0.24,-48.45,36.00,13.95,27.1
2026/05/04 21:48:55.88,IMU,190.92,694.34,633.79,0.92,0.55,0.31,-49.65,34.50,13.35,27.1
2026/05/04 21:48:55.98,IMU,219.73,685.55,686.52,1.22,-2.01,-1.51,-49.05,37.35,13.50,27.3
2026/05/04 21:48:56.08,IMU,237.30,676.27,696.78,-0.11,1.27,-0.86,-48.90,36.45,13.65,27.3
2026/05/04 21:48:56.18,IMU,218.75,673.34,677.73,1.40,0.35,1.54,-49.35,35.85,14.85,26.8
2026/05/04 21:48:56.28,IMU,224.61,679.69,668.95,0.20,0.00,-1.96,-48.75,36.60,14.55,27.3
2026/05/04 21:48:56.38,IMU,223.63,663.57,673.34,3.34,0.24,-0.53,-49.80,37.35,13.05,27.3
2026/05/04 21:48:56.48,IMU,224.12,673.34,676.76,-0.07,-2.02,-0.60,-48.90,36.00,13.35,27.3
2026/05/04 21:48:56.58,IMU,229.49,661.13,665.04,-0.24,3.87,1.93,-48.45,36.00,14.70,27.2
2026/05/04 21:48:56.68,IMU,231.93,683.11,692.38,-0.89,1.22,0.05,-49.80,35.40,13.50,27.6
2026/05/04 21:48:56.78,IMU,205.08,659.67,659.18,0.75,0.37,2.39,-48.90,35.55,13.65,27.1
2026/05/04 21:48:56.88,IMU,246.09,658.69,712.89,0.11,-5.16,2.12,-48.75,35.85,13.80,27.3
2026/05/04 21:48:56.98,IMU,209.47,668.95,686.04,0.04,2.09,3.72,-49.05,35.40,13.80,27.5
2026/05/04 21:48:57.09,IMU,233.40,682.13,675.78,1.15,-4.25,-0.62,-48.75,35.85,13.80,27.5
2026/05/04 21:48:57.19,IMU,226.07,671.39,688.48,4.48,-0.59,0.72,-49.35,34.65,13.05,27.5
2026/05/04 21:48:57.29,IMU,229.49,692.87,676.76,0.96,0.06,1.45,-47.25,36.15,13.50,27.3
2026/05/04 21:48:57.39,IMU,230.47,696.29,668.46,1.63,-2.51,2.27,-49.20,36.00,13.35,27.3
2026/05/04 21:48:57.49,IMU,251.95,670.90,659.18,-1.24,0.34,0.27,-50.70,33.75,15.15,27.3
2026/05/04 21:48:57.59,IMU,238.77,667.97,656.25,0.68,-1.02,2.10,-49.65,35.25,13.35,27.4
2026/05/04 21:48:57.69,IMU,233.89,665.53,665.04,-0.50,-1.11,1.30,-51.75,34.05,16.95,27.5
2026/05/04 21:48:57.79,IMU,244.63,659.18,655.27,1.72,2.16,-2.25,-48.90,36.00,12.60,27.3
2026/05/04 21:48:57.89,IMU,224.61,683.59,672.85,3.31,-0.45,-2.37,-49.65,34.80,13.35,27.3
2026/05/04 21:48:57.99,IMU,243.65,675.29,676.76,1.53,0.34,-1.15,-47.70,35.25,12.60,27.5
2026/05/04 21:48:58.09,IMU,245.12,679.69,688.96,1.43,-1.15,-3.18,-48.45,36.45,14.40,27.3
2026/05/04 21:48:58.19,IMU,233.89,686.04,668.95,2.98,-0.08,-1.62,-48.45,35.25,12.60,27.3
2026/05/04 21:48:58.29,IMU,228.52,667.48,684.57,-0.39,-0.27,-1.02,-48.45,34.80,14.40,27.3
2026/05/04 21:48:58.39,IMU,243.16,677.25,674.80,2.63,-0.63,0.03,-48.00,35.85,14.25,27.2
2026/05/04 21:48:58.49,IMU,235.35,680.18,658.20,1.33,2.47,-3.16,-48.15,35.25,12.60,27.6
2026/05/04 21:48:58.59,IMU,227.54,677.73,678.22,-1.49,3.83,-0.27,-49.35,36.15,14.55,27.5
2026/05/04 21:48:58.69,IMU,224.61,679.69,692.38,-0.55,3.51,-2.15,-50.40,34.05,18.00,27.5
2026/05/04 21:48:58.79,IMU,216.31,671.88,685.06,-1.37,2.30,-1.04,-48.30,34.35,13.80,27.6
2026/05/04 21:48:58.89,IMU,230.47,656.74,670.41,0.46,-3.18,-1.95,-47.10,35.25,13.35,27.3
2026/05/04 21:48:58.99,IMU,214.84,688.48,694.82,0.83,0.89,2.16,-49.20,36.00,13.65,27.4
2026/05/04 21:48:59.09,IMU,214.84,653.81,707.52,-2.24,-0.16,-1.11,-48.00,33.90,14.25,27.4
2026/05/04 21:48:59.20,IMU,234.38,671.39,678.71,-0.92,0.87,1.24,-49.05,34.35,14.85,27.5
2026/05/04 21:48:59.30,IMU,203.61,656.25,699.71,-0.56,1.95,-0.66,-49.35,35.85,14.55,27.3
2026/05/04 21:48:59.40,IMU,232.42,678.71,705.57,-4.73,-6.98,-0.08,-49.35,36.60,14.55,27.5
2026/05/04 21:48:59.50,IMU,252.93,655.27,655.76,-2.25,-5.19,1.80,-48.90,34.05,13.35,27.5
2026/05/04 21:48:59.60,IMU,260.74,645.02,702.64,7.12,-6.29,6.08,-48.90,34.50,12.60,27.6
2026/05/04 21:48:59.70,IMU,247.07,668.95,724.12,2.09,13.76,1.41,-48.30,34.65,14.55,27.5
2026/05/04 21:48:59.80,IMU,253.42,663.09,661.13,0.29,0.11,3.22,-48.45,33.00,12.90,27.6
2026/05/04 21:48:59.90,IMU,220.21,641.60,657.71,-0.31,8.93,-3.99,-49.80,33.60,12.75,27.5
2026/05/04 21:49:00.01,IMU,241.70,666.99,703.13,-0.46,8.49,1.27,-50.10,31.20,14.25,27.7
2026/05/04 21:49:00.11,IMU,220.70,673.83,710.45,-0.70,-1.34,1.27,-51.30,31.65,15.30,27.5
2026/05/04 21:49:00.21,IMU,244.14,664.55,694.82,-1.08,0.02,3.60,-48.75,32.40,14.85,27.5
2026/05/04 21:49:00.32,IMU,171.88,630.37,708.01,0.16,-5.95,1.62,-47.25,32.70,14.85,27.5
2026/05/04 21:49:00.42,IMU,212.89,666.02,738.77,-2.17,7.69,-3.30,-47.10,32.25,15.45,27.5
2026/05/04 21:49:00.52,IMU,220.21,609.86,649.41,-3.08,-0.82,-1.54,-47.10,34.05,13.95,27.5
2026/05/04 21:49:00.62,IMU,226.56,662.11,706.54,5.73,-3.21,2.74,-46.50,32.40,16.05,27.7
2026/05/04 21:49:00.72,IMU,249.02,675.78,670.90,7.34,-10.47,1.85,-46.35,33.30,13.95,27.5
2026/05/04 21:49:00.82,IMU,275.39,680.18,677.73,2.17,0.08,-0.18,-48.00,31.65,12.75,27.6
2026/05/04 21:49:00.92,IMU,202.15,638.18,712.89,-0.62,-7.35,1.94,-49.05,31.65,13.05,27.2
2026/05/04 21:49:01.02,IMU,230.47,621.58,675.29,-0.70,0.16,-6.61,-49.80,31.95,12.45,27.6
2026/05/04 21:49:01.12,IMU,261.72,686.04,680.18,1.13,-0.83,1.40,-48.75,32.70,14.55,27.5
2026/05/04 21:49:01.22,IMU,290.53,685.55,694.34,-0.68,-9.41,3.11,-49.05,33.90,13.80,27.3
2026/05/04 21:49:01.32,IMU,264.65,593.75,655.76,0.39,16.87,4.18,-51.60,33.15,13.05,27.5
2026/05/04 21:49:01.42,IMU,226.07,644.53,720.21,2.56,-1.92,1.85,-48.45,32.55,13.95,27.2
2026/05/04 21:49:01.52,IMU,235.84,636.72,675.78,0.08,-1.14,-0.80,-49.80,32.70,14.25,27.6
2026/05/04 21:49:01.62,IMU,260.25,666.02,632.81,7.07,-3.11,-4.98,-48.15,33.30,12.90,27.3
2026/05/04 21:49:01.72,IMU,271.00,667.97,729.00,2.41,-2.11,0.15,-48.75,32.40,14.85,27.3
2026/05/04 21:49:01.83,IMU,192.38,662.60,723.14,-4.85,5.28,-3.30,-47.55,33.60,13.50,27.3
2026/05/04 21:49:01.93,IMU,261.23,663.57,692.38,-2.34,-0.99,-2.16,-48.15,33.75,14.40,27.2
2026/05/04 21:49:02.03,IMU,256.84,663.09,657.23,-0.56,-3.63,0.79,-50.70,32.55,13.35,27.3
2026/05/04 21:49:02.13,IMU,229.49,654.30,716.80,-5.36,5.84,0.05,-49.20,33.00,15.15,27.5
2026/05/04 21:49:02.23,IMU,225.10,627.44,682.62,1.85,-4.21,2.11,-51.45,34.05,15.15,27.3
2026/05/04 21:49:02.33,IMU,232.42,660.64,694.34,-1.54,1.08,-1.21,-49.35,33.60,14.55,27.5
2026/05/04 21:49:02.43,IMU,270.51,641.60,640.14,-4.45,5.06,0.42,-50.40,34.05,14.70,27.3
2026/05/04 21:49:02.53,IMU,233.89,646.97,692.87,3.15,4.15,0.20,-49.65,33.00,15.45,27.3
2026/05/04 21:49:02.63,IMU,238.28,650.88,705.08,0.67,1.40,-0.94,-49.80,33.90,15.60,27.3
2026/05/04 21:49:02.73,IMU,208.50,642.09,732.91,-2.54,11.11,-1.40,-49.95,32.55,16.95,27.3
2026/05/04 21:49:02.83,IMU,203.61,648.93,677.73,-0.08,-3.20,-2.40,-49.95,34.80,14.40,27.1
2026/05/04 21:49:02.93,IMU,233.40,661.62,703.13,0.31,-3.83,-3.79,-49.95,33.30,14.40,27.3
2026/05/04 21:49:03.03,IMU,217.29,622.07,669.43,0.83,0.73,1.70,-49.65,32.55,14.70,27.3
2026/05/04 21:49:03.13,IMU,209.47,644.04,700.68,-0.01,1.16,-0.27,-49.65,33.30,14.70,27.5
2026/05/04 21:49:03.23,IMU,203.61,661.13,712.40,-2.02,0.37,1.22,-49.65,31.80,16.20,27.3
2026/05/04 21:49:03.34,IMU,198.24,645.02,734.86,0.56,-5.27,3.01,-49.35,33.15,15.30,27.1
2026/05/04 21:49:03.44,IMU,222.66,633.30,683.59,0.71,-1.64,-5.11,-50.70,32.55,15.15,27.2
2026/05/04 21:49:03.54,IMU,238.77,645.51,681.64,1.85,-0.64,-0.82,-50.40,33.00,16.20,27.1
2026/05/04 21:49:03.64,IMU,234.38,648.44,695.80,2.28,-1.80,-2.56,-49.20,34.50,14.40,27.3
2026/05/04 21:49:03.74,IMU,225.59,662.60,687.01,1.28,-3.27,-1.11,-50.55,34.35,14.85,27.3
2026/05/04 21:49:03.84,IMU,240.23,639.16,685.55,0.51,4.15,1.91,-49.20,33.75,15.45,27.0
2026/05/04 21:49:03.94,IMU,221.68,631.35,698.24,0.76,-4.06,-1.41,-48.45,34.80,15.45,27.3
2026/05/04 21:49:04.04,IMU,235.35,658.69,717.77,-0.17,1.93,-3.51,-50.40,34.80,15.15,27.3
2026/05/04 21:49:04.14,IMU,235.84,661.13,696.29,-0.11,-3.49,-0.02,-49.95,35.25,15.75,27.4
2026/05/04 21:49:04.24,IMU,224.61,661.62,687.01,2.40,-0.68,-1.36,-49.05,34.35,14.85,27.3
2026/05/04 21:49:04.34,IMU,227.54,646.48,697.75,1.02,-1.44,2.33,-49.05,36.15,16.05,27.3
2026/05/04 21:49:04.44,IMU,220.70,646.97,705.57,-1.44,0.75,-1.80,-49.80,33.90,14.85,27.5
2026/05/04 21:49:04.54,IMU,227.54,659.18,683.59,2.51,-1.47,-2.84,-49.65,36.00,15.45,27.3
2026/05/04 21:49:04.64,IMU,238.77,649.41,690.43,-0.01,-1.65,0.11,-49.80,34.65,14.85,27.6
2026/05/04 21:49:04.74,IMU,218.75,634.28,712.89,0.77,-0.17,-0.84,-49.80,33.90,14.85,27.1
2026/05/04 21:49:04.84,IMU,239.75,673.34,707.03,3.73,-2.54,2.04,-50.70,34.50,16.20,27.3
2026/05/04 21:49:04.94,IMU,260.74,640.14,681.15,-0.85,-1.76,0.95,-50.55,35.10,16.05,27.3
2026/05/04 21:49:05.04,IMU,194.82,613.77,716.80,-0.90,7.19,-1.44,-49.05,32.70,15.30,27.3
2026/05/04 21:49:05.14,IMU,220.70,668.46,713.87,-0.76,-2.31,-1.50,-50.70,33.75,15.45,27.2
2026/05/04 21:49:05.24,IMU,228.52,644.53,698.24,1.73,4.95,1.12,-48.90,33.75,15.45,27.2
2026/05/04 21:49:05.34,IMU,201.17,641.60,726.07,2.09,0.25,0.41,-49.35,34.65,15.60,27.6
2026/05/04 21:49:05.44,IMU,214.84,648.44,701.66,-2.15,-4.56,-1.69,-50.55,33.60,14.85,27.3
2026/05/04 21:49:05.54,IMU,201.17,640.63,686.52,-0.15,-2.19,0.39,-49.80,33.90,14.25,27.0
2026/05/04 21:49:05.64,IMU,218.75,645.02,716.31,-0.49,2.39,2.09,-49.65,33.00,14.70,27.6
2026/05/04 21:49:05.74,IMU,224.12,649.90,747.56,-0.33,-1.14,-1.07,-48.30,34.35,14.85,27.5
2026/05/04 21:49:05.84,IMU,230.47,639.65,695.31,1.36,3.58,-0.27,-50.85,31.95,17.85,27.5
2026/05/04 21:49:05.96,IMU,211.91,648.93,729.98,-1.25,1.10,2.22,-49.35,33.60,16.05,27.2
2026/05/04 21:49:06.06,IMU,216.31,643.07,702.64,-0.76,-0.81,-1.19,-49.80,33.15,16.65,27.3
2026/05/04 21:49:06.16,IMU,234.38,648.44,687.01,-1.45,1.08,2.37,-47.70,34.05,16.95,27.2
2026/05/04 21:49:06.26,IMU,223.63,641.11,693.85,0.99,-0.63,3.27,-50.70,33.00,13.95,27.4
2026/05/04 21:49:06.36,IMU,226.07,641.60,696.29,4.37,-1.48,0.89,-49.20,35.25,16.20,27.5
2026/05/04 21:49:06.46,IMU,222.17,652.34,707.52,1.63,0.26,-0.07,-49.20,32.25,12.90,27.5
2026/05/04 21:49:06.56,IMU,209.47,640.14,717.29,-1.92,3.13,-1.96,-49.35,32.70,14.55,27.5
2026/05/04 21:49:06.66,IMU,201.17,644.53,716.31,-0.18,-0.91,-0.15,-48.45,34.50,16.20,27.3
2026/05/04 21:49:06.76,IMU,227.54,645.51,692.38,0.35,-3.66,2.69,-49.35,34.35,14.25,27.5
2026/05/04 21:49:06.86,IMU,217.29,647.46,702.15,0.93,2.57,0.78,-53.10,32.40,19.95,27.4
2026/05/04 21:49:06.96,IMU,227.05,643.07,708.50,1.27,-2.13,0.45,-49.65,34.50,14.70,27.2
2026/05/04 21:49:07.07,IMU,207.52,641.11,720.21,-0.40,1.11,2.11,-49.95,33.75,14.70,27.5
2026/05/04 21:49:07.17,IMU,213.87,633.79,708.98,-0.21,-0.52,0.24,-49.05,34.35,14.25,27.5
2026/05/04 21:49:07.27,IMU,223.14,644.53,711.43,-0.56,0.73,0.43,-48.45,33.30,14.40,27.4
2026/05/04 21:49:07.37,IMU,219.24,639.16,695.31,0.95,-0.47,1.06,-48.30,33.15,14.85,27.5
2026/05/04 21:49:07.47,IMU,216.80,645.02,718.75,0.56,-0.24,-0.46,-49.05,33.60,14.55,27.5
2026/05/04 21:49:07.57,IMU,227.05,659.18,672.36,-1.75,3.62,-1.95,-48.45,33.30,14.70,27.6
2026/05/04 21:49:07.67,IMU,201.66,599.12,680.18,-1.81,4.36,-0.92,-49.20,34.80,15.75,27.5
2026/05/04 21:49:07.78,IMU,232.91,658.20,737.79,3.01,4.56,-3.64,-49.05,32.70,15.60,27.5
2026/05/04 21:49:07.88,IMU,200.68,639.65,658.20,0.34,-2.18,1.73,-51.75,34.80,15.15,27.5
2026/05/04 21:49:07.98,IMU,220.21,659.67,731.45,2.50,-1.12,-2.21,-50.10,33.15,14.55,27.6
2026/05/04 21:49:08.08,IMU,219.73,660.64,713.87,0.15,4.21,1.63,-48.90,31.80,15.45,27.5
2026/05/04 21:49:08.18,IMU,234.38,536.62,728.52,12.40,7.60,22.98,-50.70,31.80,15.15,27.2
2026/05/04 21:49:08.28,IMU,229.98,622.56,757.32,-2.11,-5.06,13.79,-50.85,31.65,14.55,27.4
2026/05/04 21:49:08.38,IMU,258.79,665.53,722.17,-3.13,0.87,-8.24,-51.30,31.65,16.05,27.5
2026/05/04 21:49:08.48,IMU,225.59,629.39,718.26,6.92,6.82,7.53,-52.20,32.55,14.70,27.6
2026/05/04 21:49:08.59,IMU,173.83,688.48,768.55,-9.19,48.02,50.61,-50.55,29.40,15.60,27.3
2026/05/04 21:49:08.69,IMU,270.02,560.55,588.38,-6.91,12.86,-15.18,-49.20,28.80,17.55,27.6
2026/05/04 21:49:08.79,IMU,85.45,777.83,813.96,29.45,3.06,-48.65,-46.35,33.00,18.75,27.6
2026/05/04 21:49:08.89,IMU,196.78,553.71,445.80,11.62,-9.79,12.98,-51.00,30.75,21.60,27.6
2026/05/04 21:49:08.99,IMU,170.90,660.64,755.86,-4.18,11.16,-4.78,-46.65,33.30,17.25,27.3
2026/05/04 21:49:09.09,IMU,166.99,630.37,714.36,2.56,-3.79,-4.77,-48.30,31.65,16.65,27.3
2026/05/04 21:49:09.19,IMU,167.97,628.91,757.32,-5.01,3.71,-3.35,-46.50,32.40,16.65,27.5
2026/05/04 21:49:09.29,IMU,131.35,650.39,765.14,-6.88,-4.73,-8.93,-47.40,33.00,16.50,27.5
2026/05/04 21:49:09.39,IMU,173.34,609.86,733.89,-0.34,-9.05,-0.76,-48.00,33.60,17.40,27.6
2026/05/04 21:49:09.49,IMU,203.61,643.07,716.80,2.18,-7.30,-2.21,-47.10,32.55,18.00,27.6
2026/05/04 21:49:09.59,IMU,191.41,624.51,718.26,1.70,-3.73,2.61,-49.35,32.70,16.65,27.5
2026/05/04 21:49:09.69,IMU,209.47,633.79,711.91,1.67,2.47,1.29,-48.90,33.30,16.95,27.5
2026/05/04 21:49:09.79,IMU,204.10,645.51,750.49,0.27,-2.74,-1.76,-47.10,33.30,16.50,27.6
2026/05/04 21:49:09.89,IMU,184.57,625.49,729.98,0.14,0.64,-0.72,-50.40,31.50,19.05,27.7
2026/05/04 21:49:09.99,IMU,213.87,618.65,704.10,-3.11,3.14,-1.59,-50.55,31.65,14.85,27.6
2026/05/04 21:49:10.09,IMU,205.08,638.18,702.64,1.43,1.56,2.27,-49.95,32.55,16.20,27.6
2026/05/04 21:49:10.19,IMU,211.43,643.07,729.00,2.66,-2.92,1.00,-48.45,33.30,16.50,27.6
2026/05/04 21:49:10.29,IMU,228.03,643.07,702.64,0.11,1.53,-0.63,-48.00,33.90,16.65,27.5
2026/05/04 21:49:10.39,IMU,219.24,644.53,731.93,0.93,1.77,-1.05,-48.45,32.25,15.75,27.7
2026/05/04 21:49:10.49,IMU,201.17,620.61,738.77,0.64,-3.70,1.05,-48.30,32.40,16.05,27.7
2026/05/04 21:49:10.59,IMU,222.17,628.42,702.15,1.75,-1.82,1.79,-48.30,31.95,16.05,27.6
2026/05/04 21:49:10.69,IMU,202.15,639.65,710.94,0.71,-1.78,0.34,-48.15,32.55,16.95,27.5
2026/05/04 21:49:10.79,IMU,204.10,646.00,724.61,-0.37,0.23,5.15,-48.30,34.35,16.65,27.6
2026/05/04 21:49:10.89,IMU,215.33,606.93,715.82,1.76,1.38,-1.23,-49.05,33.15,17.40,27.7
2026/05/04 21:49:10.99,IMU,218.75,623.05,701.66,2.48,-1.13,3.35,-48.15,34.50,15.75,27.7
2026/05/04 21:49:11.09,IMU,214.84,638.67,698.24,-0.90,2.91,0.78,-49.05,31.95,17.10,27.5
2026/05/04 21:49:11.19,IMU,202.15,638.18,726.07,3.42,0.53,-1.73,-47.70,33.30,16.95,27.6
2026/05/04 21:49:11.30,IMU,199.22,640.14,693.36,-1.18,6.76,-3.47,-48.00,33.90,15.60,27.5
2026/05/04 21:49:11.40,IMU,212.89,651.37,719.73,1.25,2.46,0.69,-48.00,32.70,15.30,27.3
2026/05/04 21:49:11.50,IMU,209.47,643.55,727.54,0.55,1.78,2.19,-48.30,33.90,16.35,27.8
2026/05/04 21:49:11.60,IMU,207.03,655.76,706.54,1.25,-0.66,1.26,-48.75,32.70,16.65,27.8
2026/05/04 21:49:11.70,IMU,210.45,647.95,718.26,0.58,1.04,0.21,-48.45,32.25,16.50,27.8
2026/05/04 21:49:11.80,IMU,213.87,642.09,710.94,-0.79,3.16,1.92,-48.00,32.70,16.05,27.3
2026/05/04 21:49:11.91,IMU,219.73,640.14,718.26,0.67,-0.87,3.91,-48.75,32.70,17.10,27.3
2026/05/04 21:49:12.01,IMU,230.96,625.49,710.45,0.64,0.28,-2.31,-48.00,33.60,17.40,27.8
2026/05/04 21:49:12.11,IMU,214.84,638.18,726.56,0.13,0.18,-1.15,-48.15,34.80,16.50,27.7
2026/05/04 21:49:12.21,IMU,208.01,616.70,676.76,2.61,0.77,0.50,-47.40,33.30,18.00,27.7
2026/05/04 21:49:12.31,IMU,204.10,655.27,725.10,-0.02,2.04,1.36,-47.70,33.75,16.50,27.5
2026/05/04 21:49:12.41,IMU,213.38,650.39,705.08,0.75,2.18,0.11,-47.40,34.50,15.45,27.6
2026/05/04 21:49:12.51,IMU,198.73,650.39,716.80,1.01,1.33,1.78,-46.80,35.10,16.35,27.5
2026/05/04 21:49:12.61,IMU,202.15,650.88,730.47,0.95,0.21,0.63,-48.45,33.75,17.25,27.8
2026/05/04 21:49:12.72,IMU,196.29,636.72,711.43,-1.56,5.11,0.05,-48.15,34.05,17.25,27.5
2026/05/04 21:49:12.82,IMU,205.08,648.93,699.22,2.88,-2.31,1.01,-47.10,32.25,15.75,27.8
2026/05/04 21:49:12.92,IMU,223.14,658.69,721.19,0.80,-0.71,0.50,-49.20,33.30,17.25,27.5
2026/05/04 21:49:13.02,IMU,212.89,646.00,702.64,-0.68,1.43,2.02,-47.25,32.70,16.35,27.5
2026/05/04 21:49:13.12,IMU,187.50,639.65,717.77,-0.19,1.00,-0.44,-49.65,33.30,17.25,27.7
2026/05/04 21:49:13.22,IMU,219.24,643.55,705.08,-0.22,0.95,0.47,-48.00,33.90,17.85,27.6
2026/05/04 21:49:13.32,IMU,202.15,647.46,718.26,1.01,0.08,1.76,-48.15,33.75,17.25,27.6
2026/05/04 21:49:13.42,IMU,192.38,647.46,689.45,3.95,-2.89,2.74,-48.15,33.30,16.95,27.8
2026/05/04 21:49:13.52,IMU,198.24,635.25,700.20,0.53,-1.60,0.44,-48.45,32.25,16.20,27.6
2026/05/04 21:49:13.62,IMU,199.71,653.32,730.47,-2.66,1.15,-1.40,-48.15,33.00,18.30,27.6
2026/05/04 21:49:13.72,IMU,221.68,647.46,685.55,2.29,-2.88,-1.96,-47.55,33.15,18.45,27.6
2026/05/04 21:49:13.82,IMU,202.15,657.23,718.26,0.23,-0.39,2.59,-48.45,33.75,17.25,27.5
2026/05/04 21:49:13.92,IMU,206.54,654.79,716.31,-1.38,-3.47,0.85,-48.45,32.55,17.25,27.5
2026/05/04 21:49:14.02,IMU,202.64,649.90,724.61,0.24,2.62,-2.47,-48.15,33.30,17.25,27.6
2026/05/04 21:49:14.12,IMU,180.18,643.07,704.59,0.18,-0.18,-2.28,-48.00,33.15,17.85,27.6
2026/05/04 21:49:14.22,IMU,197.27,644.04,711.43,0.86,-0.38,0.06,-47.55,35.10,17.10,27.6
2026/05/04 21:49:14.32,IMU,196.29,655.27,708.01,-2.01,7.08,-1.56,-48.00,32.70,17.40,27.7
2026/05/04 21:49:14.42,IMU,194.82,645.02,699.71,2.10,-1.91,-0.33,-47.70,34.50,16.95,27.5
2026/05/04 21:49:14.52,IMU,196.29,646.48,702.64,0.09,1.96,-0.37,-47.70,34.05,18.30,27.6
2026/05/04 21:49:14.62,IMU,189.45,660.64,712.40,-2.21,1.11,2.28,-48.90,34.05,18.00,27.5
2026/05/04 21:49:14.72,IMU,204.59,645.02,692.87,-1.60,3.44,-1.22,-48.15,32.25,16.95,27.9
2026/05/04 21:49:14.82,IMU,198.24,646.00,702.15,1.87,-3.05,1.03,-47.55,33.60,17.40,27.6
2026/05/04 21:49:14.92,IMU,188.96,649.90,698.24,-0.05,1.73,-1.92,-48.00,32.40,16.65,27.6
2026/05/04 21:49:15.02,IMU,196.29,652.83,702.15,0.37,-2.76,-1.66,-50.40,31.50,18.30,27.6
2026/05/04 21:49:15.12,IMU,203.13,646.48,714.36,-2.08,6.22,-0.46,-46.65,33.00,17.25,27.6
2026/05/04 21:49:15.22,IMU,187.99,654.79,724.61,-0.98,3.01,-2.53,-47.10,34.50,17.25,27.5
2026/05/04 21:49:15.33,IMU,210.94,662.60,718.75,3.74,-2.18,1.39,-47.40,33.30,18.30,27.7
2026/05/04 21:49:15.43,IMU,195.80,640.63,696.29,1.11,-0.12,-0.09,-47.25,33.60,18.15,27.5
2026/05/04 21:49:15.53,IMU,187.01,648.44,717.29,1.45,2.21,5.95,-46.35,33.30,18.75,27.8
2026/05/04 21:49:15.63,IMU,190.92,653.32,714.84,-0.25,5.29,-2.31,-47.25,33.15,18.45,27.8
2026/05/04 21:49:15.73,IMU,198.24,646.00,702.15,2.28,-0.26,-1.18,-48.45,33.75,17.55,27.8
2026/05/04 21:49:15.83,IMU,206.54,654.79,709.96,0.63,1.35,1.97,-46.65,32.55,18.00,27.7
2026/05/04 21:49:15.93,IMU,183.11,665.53,708.98,3.58,-0.58,-0.11,-47.40,33.00,16.50,27.6
2026/05/04 21:49:16.03,IMU,187.99,657.23,697.27,1.85,-4.23,-0.63,-50.85,30.90,21.75,27.5
2026/05/04 21:49:16.13,IMU,186.52,667.97,715.33,0.82,-3.53,3.05,-47.40,33.75,16.50,27.8
2026/05/04 21:49:16.23,IMU,177.25,648.44,700.20,0.85,-0.87,-1.24,-46.80,34.35,17.10,27.6
2026/05/04 21:49:16.33,IMU,196.78,666.50,688.48,3.10,-2.27,1.56,-46.80,33.60,17.10,27.8
2026/05/04 21:49:16.43,IMU,185.55,655.27,714.36,3.18,-1.11,2.14,-48.30,34.65,17.10,27.6
2026/05/04 21:49:16.53,IMU,191.89,671.88,720.70,-0.73,2.83,0.20,-46.05,35.10,17.40,27.7
2026/05/04 21:49:16.63,IMU,177.73,657.71,716.80,0.63,-1.18,-0.57,-47.55,33.90,17.10,27.6
2026/05/04 21:49:16.73,IMU,188.48,668.46,674.80,-0.13,-0.12,-0.66,-48.15,34.05,18.00,27.9
2026/05/04 21:49:16.85,IMU,181.15,671.39,746.09,2.01,-5.48,-0.51,-49.35,34.65,17.85,27.8
2026/05/04 21:49:16.95,IMU,192.87,667.48,670.41,0.93,0.76,0.10,-48.00,34.65,18.45,27.8
2026/05/04 21:49:17.05,IMU,180.18,653.81,709.47,-0.73,1.27,-2.40,-50.85,32.70,21.45,27.5
2026/05/04 21:49:17.15,IMU,189.94,656.74,696.29,0.76,-4.63,-3.91,-47.25,35.10,16.35,27.7
2026/05/04 21:49:17.25,IMU,186.04,673.83,722.66,-2.12,1.02,-1.61,-46.80,34.35,18.45,27.8
2026/05/04 21:49:17.35,IMU,202.15,672.36,677.73,0.79,-3.43,0.97,-46.50,34.35,18.45,27.9
2026/05/04 21:49:17.45,IMU,178.71,668.95,710.94,1.69,0.55,-2.48,-46.65,34.50,16.95,27.9
2026/05/04 21:49:17.55,IMU,181.15,662.11,698.73,0.56,-0.67,-0.16,-48.45,33.30,16.95,27.7
2026/05/04 21:49:17.65,IMU,173.83,660.16,705.57,-2.77,3.11,-3.29,-46.80,35.10,18.90,27.3
2026/05/04 21:49:17.75,IMU,174.32,650.88,704.10,0.93,0.28,-1.55,-48.45,34.05,17.55,27.6
2026/05/04 21:49:17.85,IMU,177.73,667.48,716.31,0.76,0.08,-0.33,-47.70,34.80,17.55,27.8
2026/05/04 21:49:17.95,IMU,171.88,656.25,708.50,1.21,0.20,-3.36,-46.80,33.60,18.45,27.8
2026/05/04 21:49:18.06,IMU,168.95,669.92,715.82,-2.09,0.46,-0.30,-51.60,31.95,22.05,27.6
2026/05/04 21:49:18.16,IMU,178.71,656.74,698.73,1.94,1.25,1.40,-48.90,34.50,15.75,27.6
2026/05/04 21:49:18.26,IMU,189.45,670.90,656.74,-0.43,0.68,-1.02,-48.00,35.10,17.85,27.3
2026/05/04 21:49:18.36,IMU,189.94,679.20,700.20,0.82,-0.49,2.76,-47.10,35.55,18.00,27.5
2026/05/04 21:49:18.46,IMU,185.06,673.83,706.05,0.35,0.21,-1.85,-47.70,35.25,17.25,27.9
2026/05/04 21:49:18.56,IMU,177.73,666.50,681.15,-0.08,5.38,0.35,-45.00,35.85,17.85,27.6
2026/05/04 21:49:18.66,IMU,178.22,666.99,676.27,-1.82,-1.63,-1.51,-47.25,36.60,17.85,27.5
2026/05/04 21:49:18.77,IMU,182.62,659.67,700.68,0.01,1.17,-1.85,-46.80,34.35,17.10,27.6
2026/05/04 21:49:18.87,IMU,181.64,674.32,679.69,2.82,1.53,-1.53,-46.65,33.75,18.30,27.8
2026/05/04 21:49:18.97,IMU,172.36,664.06,703.61,0.31,-0.33,-1.85,-45.90,36.45,17.25,27.8
2026/05/04 21:49:19.07,IMU,190.43,680.18,686.04,-0.39,0.99,-1.25,-47.40,36.00,18.00,27.8
2026/05/04 21:49:19.17,IMU,196.78,653.32,678.71,2.15,0.26,-0.34,-47.40,34.80,16.95,27.6
2026/05/04 21:49:19.27,IMU,170.41,659.67,697.75,0.94,-0.36,-0.50,-47.40,34.05,17.55,27.7
2026/05/04 21:49:19.37,IMU,180.66,665.53,696.29,1.01,0.37,3.08,-46.80,34.65,18.45,27.6
2026/05/04 21:49:19.47,IMU,178.22,671.39,699.71,-0.40,-0.73,0.04,-47.25,33.60,17.40,27.5
2026/05/04 21:49:19.57,IMU,188.96,671.39,683.11,-0.73,-1.03,2.31,-47.70,35.25,16.95,27.3
2026/05/04 21:49:19.67,IMU,188.48,664.06,688.96,0.98,1.69,-0.94,-47.10,33.30,18.00,27.6
2026/05/04 21:49:19.77,IMU,181.15,670.41,684.57,0.11,-0.28,-3.05,-46.50,36.60,17.10,27.5
2026/05/04 21:49:19.87,IMU,166.02,665.04,702.15,1.24,-0.31,-0.01,-45.75,35.40,17.85,27.6
2026/05/04 21:49:19.97,IMU,174.80,674.80,696.78,-1.76,2.65,1.32,-47.10,34.05,19.05,27.5
2026/05/04 21:49:20.07,IMU,177.73,661.62,689.45,2.98,-1.30,1.92,-46.80,34.65,18.45,27.7
2026/05/04 21:49:20.17,IMU,184.57,675.29,701.17,1.12,1.79,1.39,-48.00,36.15,17.10,27.8
2026/05/04 21:49:20.27,IMU,173.83,667.48,697.75,2.07,-3.37,0.27,-47.55,34.65,17.85,27.8
2026/05/04 21:49:20.37,IMU,189.45,670.41,695.31,-0.88,-0.18,-0.79,-47.55,33.90,17.40,27.6
2026/05/04 21:49:20.47,IMU,181.15,678.71,693.85,-0.57,0.76,-5.04,-46.80,35.10,17.10,27.7
2026/05/04 21:49:20.57,IMU,178.22,676.27,717.77,-0.05,2.85,0.09,-48.30,34.65,16.65,27.6
2026/05/04 21:49:20.67,IMU,175.78,671.88,690.92,1.93,-0.27,-0.29,-48.15,36.00,17.55,27.6
2026/05/04 21:49:20.77,IMU,184.57,650.39,690.43,2.27,0.62,0.47,-47.55,35.10,17.85,27.9
2026/05/04 21:49:20.87,IMU,174.80,695.80,706.54,1.87,1.79,-2.44,-48.15,34.50,15.45,27.8
2026/05/04 21:49:20.99,IMU,173.34,666.50,681.64,-0.33,-1.37,-0.92,-47.40,36.00,17.25,27.8
2026/05/04 21:49:21.09,IMU,199.71,672.36,681.64,2.79,-1.33,-2.39,-47.40,33.30,16.95,27.5
2026/05/04 21:49:21.19,IMU,166.50,660.64,677.25,1.63,-2.53,-1.04,-46.35,36.45,17.25,27.7
2026/05/04 21:49:21.29,IMU,167.97,659.67,685.06,-0.50,-1.32,1.10,-48.00,35.40,19.20,27.6
2026/05/04 21:49:21.39,IMU,198.24,670.90,700.68,3.79,-3.19,3.20,-47.40,34.80,18.30,27.7
2026/05/04 21:49:21.49,IMU,172.36,656.25,688.96,0.95,-1.38,-0.02,-46.05,35.40,18.45,27.9
2026/05/04 21:49:21.59,IMU,167.97,688.96,715.82,0.47,-0.57,1.58,-46.65,36.45,15.75,27.7
2026/05/04 21:49:21.69,IMU,204.10,678.71,682.13,0.49,1.11,0.99,-48.75,34.35,17.85,27.9
2026/05/04 21:49:21.79,IMU,156.74,662.11,687.50,-0.93,-2.01,2.21,-47.40,34.50,16.20,27.5
2026/05/04 21:49:21.89,IMU,201.17,673.83,689.94,2.76,-4.25,1.27,-46.50,36.15,16.65,27.8
2026/05/04 21:49:21.99,IMU,173.34,674.32,691.89,-2.29,1.48,-0.69,-47.10,36.45,17.55,27.6
2026/05/04 21:49:22.09,IMU,170.90,673.34,687.99,0.89,-3.24,0.26,-46.65,35.25,16.95,27.9
2026/05/04 21:49:22.19,IMU,177.73,674.32,666.02,2.55,-3.34,3.52,-46.80,35.40,17.10,27.7
2026/05/04 21:49:22.29,IMU,167.97,706.54,744.63,-3.27,-0.32,-4.82,-46.65,34.80,18.00,27.6
2026/05/04 21:49:22.39,IMU,181.64,639.65,648.44,-10.92,8.67,-10.28,-48.15,35.55,18.00,27.5
2026/05/04 21:49:22.49,IMU,185.55,701.66,666.02,5.34,-3.87,-3.40,-46.65,35.25,16.95,27.9
2026/05/04 21:49:22.59,IMU,172.36,714.84,730.47,-3.27,-1.17,1.69,-47.40,35.55,16.50,27.6
2026/05/04 21:49:22.69,IMU,194.82,680.66,641.11,0.30,4.92,-1.15,-47.10,36.45,16.50,27.6
2026/05/04 21:49:22.81,IMU,207.52,705.57,640.63,4.05,-1.42,-0.75,-47.70,35.25,16.20,27.8
2026/05/04 21:49:22.91,IMU,196.29,693.36,688.96,-0.85,3.95,0.48,-48.75,35.40,17.10,27.6
2026/05/04 21:49:23.01,IMU,167.48,698.24,694.34,-3.82,5.26,-0.85,-48.45,35.25,16.95,27.8
2026/05/04 21:49:23.11,IMU,170.41,674.80,671.39,0.23,-4.83,1.40,-47.25,36.15,16.35,28.0
2026/05/04 21:49:23.21,IMU,191.89,677.25,689.45,2.05,-1.94,0.76,-48.00,35.10,18.15,27.7
2026/05/04 21:49:23.31,IMU,188.48,704.59,704.59,0.12,1.77,-3.47,-48.45,35.55,15.75,27.9
2026/05/04 21:49:23.41,IMU,192.87,688.48,667.48,1.66,-0.79,1.11,-48.00,35.40,17.85,27.6
2026/05/04 21:49:23.51,IMU,196.29,695.31,704.59,1.31,1.43,-1.76,-49.05,35.85,15.60,27.8
2026/05/04 21:49:23.61,IMU,194.82,682.62,663.09,-2.37,0.15,-4.54,-48.45,35.55,16.50,27.8
2026/05/04 21:49:23.71,IMU,194.82,704.10,650.88,1.88,3.74,-0.89,-47.55,36.15,16.35,27.8
2026/05/04 21:49:23.81,IMU,182.62,688.48,689.94,-4.71,2.80,-0.53,-47.40,36.00,16.50,27.6
2026/05/04 21:49:23.92,IMU,183.59,674.80,689.45,-2.65,2.64,2.77,-47.25,35.40,15.30,27.9
2026/05/04 21:49:24.02,IMU,171.88,675.78,688.48,-2.38,0.58,-0.06,-47.10,38.25,16.50,27.9
2026/05/04 21:49:24.12,IMU,171.88,686.04,674.32,-2.14,-0.86,0.89,-47.25,36.60,16.65,27.8
2026/05/04 21:49:24.22,IMU,190.92,679.20,688.96,3.47,-3.27,2.24,-49.05,36.90,17.10,27.8
2026/05/04 21:49:24.32,IMU,186.52,686.52,690.43,-0.34,-5.08,-1.95,-47.70,34.50,16.50,27.8
2026/05/04 21:49:24.42,IMU,197.27,681.15,707.52,2.15,-2.96,2.37,-48.00,35.40,16.35,27.8
2026/05/04 21:49:24.52,IMU,208.50,700.20,645.51,-2.61,-0.17,2.48,-48.00,36.15,17.10,27.9
2026/05/04 21:49:24.62,IMU,188.48,646.48,690.43,0.33,-6.60,1.66,-49.95,35.55,16.50,27.8
2026/05/04 21:49:24.72,IMU,214.36,664.06,667.97,-1.11,-13.97,2.57,-47.70,34.80,15.75,28.0
2026/05/04 21:49:24.82,IMU,228.03,686.04,681.15,-2.10,-10.30,-1.66,-49.65,36.45,16.95,27.6
2026/05/04 21:49:24.92,IMU,255.37,670.41,647.95,0.93,-10.19,-1.24,-50.10,35.85,15.30,27.8
2026/05/04 21:49:25.02,IMU,243.16,664.55,663.09,-1.34,-0.84,-3.67,-49.20,34.80,15.15,27.7
2026/05/04 21:49:25.12,IMU,226.56,655.76,664.55,-0.67,-2.79,-3.19,-49.35,35.40,14.55,27.9
2026/05/04 21:49:25.22,IMU,239.26,658.69,706.05,2.50,-3.41,2.28,-53.10,34.35,17.85,27.8
2026/05/04 21:49:25.32,IMU,247.07,654.30,658.69,-0.44,-4.67,-2.33,-50.40,35.25,15.45,28.1
2026/05/04 21:49:25.42,IMU,227.05,671.88,721.68,1.08,2.14,4.44,-49.35,33.90,14.25,27.9
2026/05/04 21:49:25.52,IMU,241.70,679.69,653.81,-0.56,1.31,-0.86,-48.75,36.90,16.35,28.0
2026/05/04 21:49:25.62,IMU,240.23,660.64,666.50,1.03,1.11,2.05,-48.45,35.55,15.75,27.8
2026/05/04 21:49:25.72,IMU,246.09,673.34,684.57,-0.60,0.62,0.35,-48.30,35.85,15.30,28.0
2026/05/04 21:49:25.82,IMU,219.24,669.92,680.66,2.39,2.03,1.30,-50.10,34.65,14.55,27.8
2026/05/04 21:49:25.92,IMU,248.54,671.88,647.46,0.19,-3.25,-0.15,-49.05,35.85,14.55,27.8
2026/05/04 21:49:26.02,IMU,230.96,674.80,675.29,0.92,0.82,0.27,-50.55,34.65,15.30,27.7
2026/05/04 21:49:26.12,IMU,230.96,676.76,668.46,1.98,-0.44,0.07,-49.65,34.80,15.75,27.9
2026/05/04 21:49:26.22,IMU,224.61,688.96,674.32,0.76,-1.08,2.17,-50.55,34.65,17.85,27.8
2026/05/04 21:49:26.32,IMU,221.19,681.64,693.36,-1.59,2.79,1.07,-48.75,34.65,14.85,27.8
2026/05/04 21:49:26.42,IMU,234.38,674.80,680.66,2.55,0.05,0.51,-49.95,36.00,16.20,28.0
2026/05/04 21:49:26.52,IMU,223.63,674.32,688.96,-1.05,-2.21,0.52,-49.05,35.85,16.05,27.6
2026/05/04 21:49:26.62,IMU,234.86,586.43,550.78,38.32,-38.49,11.83,-49.35,36.60,15.30,27.9
2026/05/04 21:49:26.72,IMU,245.61,872.07,724.61,3.56,-7.61,1.50,-48.90,35.55,15.75,27.7
2026/05/04 21:49:26.82,IMU,222.17,641.60,609.38,-1.36,4.14,-2.38,-49.35,37.35,16.05,27.9
2026/05/04 21:49:26.94,IMU,198.73,695.31,674.80,0.24,-4.30,-0.93,-49.05,35.40,14.85,27.9
2026/05/04 21:49:27.04,IMU,238.77,687.99,640.63,0.08,5.37,1.28,-49.35,36.90,15.60,27.8
2026/05/04 21:49:27.14,IMU,224.61,682.62,648.93,-1.27,6.58,5.56,-47.25,35.85,16.35,28.0
2026/05/04 21:49:27.24,IMU,215.82,701.66,680.66,0.63,-0.84,2.08,-52.95,33.30,19.35,27.8
2026/05/04 21:49:27.34,IMU,235.84,684.08,667.48,-1.72,-2.66,2.82,-49.35,35.85,14.25,27.7
2026/05/04 21:49:27.44,IMU,220.21,689.94,647.95,-2.59,3.65,-3.40,-50.40,35.55,15.75,27.8
2026/05/04 21:49:27.54,IMU,226.56,685.06,653.32,-0.11,-0.22,-0.53,-48.45,36.00,15.15,27.8
2026/05/04 21:49:27.64,IMU,210.94,685.06,688.96,0.08,-0.10,-0.44,-49.65,35.55,15.45,27.7
2026/05/04 21:49:27.74,IMU,217.29,695.31,656.25,-0.01,0.59,1.31,-49.65,35.55,15.15,27.8
2026/05/04 21:49:27.84,IMU,219.24,692.87,662.60,-0.04,3.23,-1.93,-48.30,35.40,14.85,27.8
2026/05/04 21:49:27.94,IMU,218.26,686.04,662.60,-1.57,1.88,-2.05,-49.95,36.75,14.70,27.8
2026/05/04 21:49:28.04,IMU,217.29,699.22,665.04,-0.75,-0.90,2.15,-49.05,34.35,15.30,27.8
2026/05/04 21:49:28.14,IMU,224.12,690.43,663.57,-1.76,4.15,0.74,-49.65,36.00,16.95,28.0
2026/05/04 21:49:28.25,IMU,215.82,687.99,663.57,0.62,0.18,-2.15,-49.65,34.80,16.20,27.6
2026/05/04 21:49:28.35,IMU,224.61,688.48,665.04,0.24,1.23,0.44,-48.75,36.60,16.35,28.0
2026/05/04 21:49:28.45,IMU,212.40,679.69,652.83,2.43,-3.63,4.61,-48.90,35.25,16.20,28.0
2026/05/04 21:49:28.55,IMU,223.63,666.99,668.95,0.87,5.87,-0.98,-50.40,36.45,16.50,27.8
2026/05/04 21:49:28.65,IMU,214.84,691.41,663.09,-0.03,-2.26,0.44,-49.95,35.55,16.20,27.7
2026/05/04 21:49:28.75,IMU,219.24,686.52,668.46,1.18,-1.03,-1.33,-48.75,35.85,14.55,27.8
2026/05/04 21:49:28.85,IMU,219.24,687.99,675.29,0.04,2.37,3.27,-49.65,35.55,15.45,27.9
2026/05/04 21:49:28.96,IMU,220.70,687.99,667.97,0.27,1.61,-2.40,-49.65,35.55,15.45,28.0
2026/05/04 21:49:29.06,IMU,231.45,681.15,662.60,1.58,-1.56,3.76,-49.05,34.65,14.85,27.8
2026/05/04 21:49:29.16,IMU,229.98,688.96,663.09,-1.65,-1.02,-0.71,-47.70,36.45,15.15,27.8
2026/05/04 21:49:29.26,IMU,227.05,673.83,663.57,-2.16,3.00,1.66,-49.05,36.15,15.30,27.8
2026/05/04 21:49:29.36,IMU,218.26,686.52,691.89,-3.22,0.51,2.08,-48.00,36.60,15.60,28.1
2026/05/04 21:49:29.46,IMU,221.19,674.80,675.29,-0.28,1.10,-0.54,-48.75,35.85,15.30,27.7
2026/05/04 21:49:29.56,IMU,209.96,681.64,671.88,-2.95,1.28,-1.04,-49.65,34.50,15.15,27.9
2026/05/04 21:49:29.66,IMU,224.12,668.95,675.78,0.87,-2.85,2.46,-48.90,34.80,16.50,27.9
2026/05/04 21:49:29.76,IMU,220.21,685.55,665.53,-2.00,1.25,1.93,-48.75,35.10,14.85,27.9
2026/05/04 21:49:29.86,IMU,240.23,677.73,660.16,0.85,-0.31,3.17,-48.90,36.45,16.50,28.0
2026/05/04 21:49:29.96,IMU,177.25,697.75,685.55,-2.68,6.19,-2.98,-49.20,35.25,16.50,28.0
2026/05/04 21:49:30.06,IMU,217.77,705.08,679.20,3.25,-6.95,-4.90,-50.10,36.15,15.60,28.0
2026/05/04 21:49:30.16,IMU,284.18,640.63,637.21,-1.50,2.24,-2.33,-48.90,35.55,15.15,28.0
2026/05/04 21:49:30.26,IMU,193.36,719.24,700.68,-0.69,6.77,-1.76,-49.80,36.60,15.60,28.0
2026/05/04 21:49:30.36,IMU,206.54,671.88,646.48,2.47,-0.04,2.37,-49.05,35.40,16.65,27.7
2026/05/04 21:49:30.46,IMU,199.71,680.66,679.20,1.66,1.34,1.21,-47.55,36.90,16.65,27.8
2026/05/04 21:49:30.56,IMU,222.17,671.88,665.04,1.48,-3.35,4.27,-47.70,37.20,15.45,28.0
2026/05/04 21:49:30.66,IMU,205.57,697.75,681.64,0.61,1.89,2.60,-48.30,37.35,15.60,27.9
2026/05/04 21:49:30.76,IMU,221.19,682.62,659.18,1.47,-0.69,-0.20,-48.15,36.45,16.20,27.9
2026/05/04 21:49:30.86,IMU,214.36,696.29,677.73,0.91,1.93,0.10,-49.20,36.00,15.45,27.8
2026/05/04 21:49:30.96,IMU,226.07,692.38,663.57,-0.91,-0.76,0.96,-49.20,35.25,15.45,27.8
2026/05/04 21:49:31.06,IMU,208.50,684.08,663.09,1.43,0.07,-2.11,-49.35,36.15,14.85,28.1
2026/05/04 21:49:31.16,IMU,231.45,699.22,672.85,1.19,0.68,1.83,-48.45,37.20,16.50,28.0
2026/05/04 21:49:31.26,IMU,218.75,688.48,636.72,1.57,1.40,-0.94,-49.65,35.55,15.15,28.0
2026/05/04 21:49:31.36,IMU,193.85,674.80,683.11,-0.26,-2.47,1.46,-48.30,35.85,15.30,27.8
2026/05/04 21:49:31.46,IMU,237.79,689.45,658.20,2.61,-6.08,-0.08,-48.00,34.65,14.25,28.0
2026/05/04 21:49:31.56,IMU,201.17,674.32,702.64,-2.82,0.22,0.89,-50.10,36.60,16.05,28.0
2026/05/04 21:49:31.66,IMU,187.50,701.17,680.18,3.12,-3.87,-2.00,-48.30,36.60,14.55,28.1
2026/05/04 21:49:31.77,IMU,238.77,673.83,655.27,-0.80,0.59,2.05,-49.20,36.00,15.45,27.8
2026/05/04 21:49:31.87,IMU,208.98,675.78,683.59,-2.76,4.68,1.14,-49.20,36.45,15.75,27.8
2026/05/04 21:49:31.97,IMU,210.45,680.18,659.67,-0.01,-3.21,-1.21,-49.05,36.60,14.85,27.9
2026/05/04 21:49:32.07,IMU,233.89,683.11,654.79,-3.77,-3.15,0.48,-49.95,37.20,15.45,28.0
2026/05/04 21:49:32.17,IMU,210.94,680.66,654.79,2.44,-0.88,0.25,-49.95,35.55,15.15,27.9
2026/05/04 21:49:32.27,IMU,219.73,689.94,671.39,-1.09,6.05,5.05,-48.30,36.15,14.55,28.0
2026/05/04 21:49:32.37,IMU,244.14,675.29,646.48,1.14,0.04,1.21,-49.05,36.15,15.30,27.6
2026/05/04 21:49:32.47,IMU,204.59,677.25,662.11,-0.25,-1.37,-2.02,-50.85,36.90,14.25,28.0
2026/05/04 21:49:32.57,IMU,219.73,684.08,676.27,2.02,1.06,-6.22,-49.80,36.15,15.60,28.3
2026/05/04 21:49:32.67,IMU,279.79,681.64,614.75,18.28,-33.69,10.35,-50.40,36.75,15.15,28.0
2026/05/04 21:49:32.77,IMU,221.19,666.02,620.61,-9.24,15.64,-7.18,-50.40,36.00,13.95,27.9
2026/05/04 21:49:32.88,IMU,222.66,712.89,751.95,0.24,3.44,0.98,-49.05,36.15,15.30,28.0
2026/05/04 21:49:32.98,IMU,231.93,677.73,671.39,1.21,0.92,2.36,-49.65,36.00,14.70,28.1
2026/05/04 21:49:33.08,IMU,203.61,689.45,687.99,-0.70,-4.24,-0.07,-47.40,36.45,15.15,28.0
2026/05/04 21:49:33.18,IMU,219.73,690.43,662.60,-1.15,-3.93,0.33,-49.95,36.75,15.75,28.2
2026/05/04 21:49:33.28,IMU,232.42,686.52,659.18,-0.08,1.08,-0.08,-49.95,36.00,15.75,27.9
2026/05/04 21:49:33.38,IMU,209.96,673.83,681.64,3.02,-1.01,-1.37,-50.40,37.20,17.85,28.0
2026/05/04 21:49:33.48,IMU,230.96,679.69,686.04,0.45,-1.40,-0.11,-49.80,33.90,15.30,28.0
2026/05/04 21:49:33.58,IMU,244.14,710.45,660.16,1.11,0.99,11.31,-49.20,35.25,15.45,27.9
2026/05/04 21:49:33.68,IMU,252.44,670.90,666.50,-1.30,7.08,-4.03,-49.65,36.45,14.70,28.1
2026/05/04 21:49:33.78,IMU,232.91,688.96,696.78,-1.31,1.76,-2.79,-49.95,35.55,15.75,28.1
2026/05/04 21:49:33.88,IMU,223.14,683.11,678.22,-1.37,6.69,-1.40,-48.75,36.60,14.55,28.0
2026/05/04 21:49:33.98,IMU,228.52,718.26,687.50,-1.63,0.76,-1.88,-49.80,37.35,14.55,27.9
2026/05/04 21:49:34.08,IMU,258.79,699.22,617.19,-0.02,-1.73,-1.21,-48.75,35.40,17.40,28.0
2026/05/04 21:49:34.18,IMU,245.61,705.08,686.52,0.58,3.47,2.27,-50.40,35.55,14.70,28.4
2026/05/04 21:49:34.28,IMU,206.54,661.13,688.48,-3.44,6.34,1.96,-49.05,35.40,16.65,27.9
2026/05/04 21:49:34.38,IMU,212.89,691.89,641.11,-8.23,3.06,-1.15,-50.70,34.05,20.10,28.3
2026/05/04 21:49:34.48,IMU,203.61,665.53,674.32,2.16,-1.80,-4.18,-48.90,36.00,18.30,27.9
2026/05/04 21:49:34.58,IMU,228.03,687.01,675.29,1.21,2.34,-2.91,-48.45,34.50,15.15,28.4
2026/05/04 21:49:34.68,IMU,209.47,683.11,686.04,0.56,1.82,0.88,-48.00,35.40,17.40,28.1
2026/05/04 21:49:34.78,IMU,228.03,665.04,687.01,-1.09,2.20,0.83,-48.75,34.65,15.60,28.2
2026/05/04 21:49:34.89,IMU,185.06,682.62,714.84,1.45,5.44,-1.23,-48.15,33.75,17.25,28.0
2026/05/04 21:49:34.99,IMU,203.13,666.50,669.43,-2.56,-4.61,-3.61,-48.30,35.10,16.05,28.1
2026/05/04 21:49:35.09,IMU,218.26,689.94,692.38,-0.98,1.27,-2.11,-48.75,34.65,15.60,28.2
2026/05/04 21:49:35.19,IMU,226.56,698.73,682.13,-0.11,-3.73,2.17,-47.55,35.40,16.05,28.2
2026/05/04 21:49:35.29,IMU,192.87,687.01,675.78,1.66,1.05,-3.84,-48.45,35.25,16.50,28.0
2026/05/04 21:49:35.40,IMU,209.47,694.82,662.11,-2.68,1.55,0.92,-52.20,33.30,20.85,28.2
2026/05/04 21:49:35.50,IMU,206.54,677.25,664.06,0.99,0.40,-3.66,-47.70,35.25,15.15,28.0
2026/05/04 21:49:35.60,IMU,175.29,664.06,687.50,0.08,-4.23,0.19,-46.65,35.55,16.20,28.0
2026/05/04 21:49:35.70,IMU,230.96,698.24,671.88,-1.38,-0.80,-3.25,-48.00,35.85,17.40,28.1
2026/05/04 21:49:35.80,IMU,199.22,674.80,680.66,2.03,1.08,2.27,-48.45,35.25,15.75,28.4
2026/05/04 21:49:35.90,IMU,168.46,706.05,707.03,0.40,-8.15,3.28,-48.00,35.10,16.65,28.3
2026/05/04 21:49:36.00,IMU,193.36,699.22,734.38,-12.43,-1.24,-0.52,-49.35,36.15,17.40,28.1
2026/05/04 21:49:36.10,IMU,248.54,576.66,617.19,0.94,-6.38,6.11,-48.15,33.75,15.45,28.0
2026/05/04 21:49:36.20,IMU,225.59,711.43,703.61,11.26,0.01,-7.94,-49.35,35.40,16.65,28.3
2026/05/04 21:49:36.30,IMU,207.52,651.37,698.24,5.63,-6.60,4.09,-48.15,36.45,15.15,28.2
2026/05/04 21:49:36.40,IMU,239.26,688.48,665.53,1.50,-0.27,-1.08,-48.30,35.10,15.60,28.3
2026/05/04 21:49:36.50,IMU,229.98,675.78,671.39,0.64,1.89,-2.66,-49.20,35.55,15.45,28.0
2026/05/04 21:49:36.60,IMU,206.54,663.57,696.29,0.03,5.97,-1.58,-48.75,35.10,16.35,28.2
2026/05/04 21:49:36.70,IMU,199.22,701.66,669.92,-2.19,4.14,-5.25,-49.35,35.40,16.05,27.8
2026/05/04 21:49:36.80,IMU,228.03,716.80,622.07,-3.02,1.63,-5.76,-48.45,36.45,16.50,28.3
2026/05/04 21:49:36.90,IMU,203.61,679.69,703.61,-0.95,2.44,-2.23,-48.30,36.15,16.05,28.2
2026/05/04 21:49:37.01,IMU,175.29,659.18,710.45,-1.44,2.05,0.07,-48.30,34.65,17.10,28.2
2026/05/04 21:49:37.11,IMU,169.92,660.16,673.83,-0.86,-1.34,-1.71,-49.20,37.50,16.95,27.9
2026/05/04 21:49:37.21,IMU,232.42,682.13,693.36,2.84,-4.04,0.27,-48.30,35.10,16.65,28.1
2026/05/04 21:49:37.31,IMU,193.36,682.62,692.38,-0.50,3.65,-2.34,-47.55,36.90,16.05,28.0
2026/05/04 21:49:37.41,IMU,181.15,683.11,681.15,-3.73,-3.35,-3.31,-49.35,35.85,16.05,28.3
2026/05/04 21:49:37.51,IMU,191.41,672.85,681.64,-2.63,1.45,-4.90,-48.30,36.60,17.40,28.3
2026/05/04 21:49:37.61,IMU,206.05,642.09,662.11,1.69,-8.67,4.80,-48.75,35.40,14.85,28.2
2026/05/04 21:49:37.71,IMU,182.62,687.99,696.78,0.27,6.73,1.11,-48.75,37.35,16.05,27.9
2026/05/04 21:49:37.81,IMU,171.88,657.23,679.69,-3.05,-3.44,-3.86,-48.15,36.00,15.45,28.2
2026/05/04 21:49:37.91,IMU,218.75,675.78,674.32,3.73,-6.03,-3.47,-49.35,35.85,16.35,28.0
2026/05/04 21:49:38.01,IMU,210.45,716.80,718.26,0.80,-4.15,-1.86,-47.70,37.20,15.15,28.2
2026/05/04 21:49:38.11,IMU,192.38,653.81,649.41,-3.20,-3.37,-1.98,-49.65,36.75,14.70,28.0
2026/05/04 21:49:38.21,IMU,215.33,658.69,667.97,-0.51,-6.55,-4.31,-49.95,37.20,14.70,28.1
2026/05/04 21:49:38.31,IMU,214.36,663.09,670.41,4.32,-0.78,-0.63,-49.35,36.60,13.80,28.0
2026/05/04 21:49:38.41,IMU,208.01,685.06,678.71,1.34,-1.50,-4.70,-49.95,37.20,13.95,27.9
2026/05/04 21:49:38.51,IMU,206.05,677.25,660.16,-0.09,-0.62,-3.26,-48.45,36.45,13.65,28.0
2026/05/04 21:49:38.61,IMU,187.01,744.14,740.72,2.49,-1.11,-1.34,-49.05,35.85,13.80,28.1
2026/05/04 21:49:38.71,IMU,214.36,624.02,645.51,0.00,-6.10,-1.41,-48.15,35.55,14.70,28.2
2026/05/04 21:49:38.83,IMU,201.66,678.71,676.27,1.77,2.91,-0.30,-49.20,37.20,13.65,28.2
2026/05/04 21:49:38.93,IMU,177.73,682.13,706.05,-0.02,-9.07,0.10,-49.80,36.60,14.25,27.9
2026/05/04 21:49:39.03,IMU,194.82,669.92,681.64,1.37,-3.90,-2.60,-48.45,38.70,15.15,28.1
2026/05/04 21:49:39.13,IMU,213.87,676.76,667.97,-0.11,3.84,2.00,-49.35,37.35,14.25,28.2
2026/05/04 21:49:39.23,IMU,167.48,678.22,700.20,-1.44,-1.56,-2.78,-48.75,36.90,14.55,28.2
2026/05/04 21:49:39.33,IMU,169.92,669.92,698.73,-0.85,0.19,-2.29,-49.05,37.35,14.55,28.1
2026/05/04 21:49:39.43,IMU,201.66,712.40,684.08,1.53,-1.19,1.24,-48.45,37.20,15.45,28.0
2026/05/04 21:49:39.53,IMU,185.06,710.94,706.05,-3.44,-3.56,-11.55,-50.40,37.95,13.95,28.0
2026/05/04 21:49:39.63,IMU,205.08,632.81,624.02,-3.42,-8.00,-5.00,-48.45,38.25,14.40,28.4
2026/05/04 21:49:39.73,IMU,189.94,688.48,698.24,-1.08,7.36,-2.13,-48.75,37.65,13.80,28.0
2026/05/04 21:49:39.83,IMU,170.90,656.25,699.22,2.72,-8.79,0.53,-49.65,37.50,13.65,28.1
2026/05/04 21:49:39.93,IMU,188.96,658.20,711.91,1.21,-3.58,-3.62,-49.80,37.65,13.05,28.0
2026/05/04 21:49:40.03,IMU,199.22,677.25,684.08,1.21,-2.04,-1.93,-48.45,38.70,13.65,28.0
2026/05/04 21:49:40.13,IMU,268.55,716.80,646.00,-0.41,-6.18,3.47,-49.80,38.10,12.45,28.0
2026/05/04 21:49:40.23,IMU,187.99,683.11,644.04,-1.52,-0.54,4.76,-50.70,38.70,12.90,28.0
2026/05/04 21:49:40.33,IMU,247.07,671.88,667.48,2.08,-1.88,-3.80,-49.95,38.25,13.65,27.8
2026/05/04 21:49:40.43,IMU,209.96,730.96,723.14,-4.08,9.32,-1.78,-50.85,38.85,14.25,28.3
2026/05/04 21:49:40.53,IMU,212.40,598.63,615.23,-3.05,-9.22,4.53,-49.95,38.70,13.35,28.0
2026/05/04 21:49:40.63,IMU,211.91,716.31,690.43,0.35,1.32,0.67,-50.55,37.65,12.75,28.2
2026/05/04 21:49:40.73,IMU,203.13,654.79,677.73,-1.15,1.18,2.13,-50.10,38.85,13.05,28.2
2026/05/04 21:49:40.83,IMU,225.59,687.50,668.95,-4.21,-7.65,-1.66,-49.95,37.20,13.65,28.2
2026/05/04 21:49:40.94,IMU,284.67,682.13,621.09,-1.21,1.08,-3.24,-50.85,38.40,13.05,27.9
2026/05/04 21:49:41.04,IMU,223.14,669.92,670.90,-0.63,2.12,1.85,-49.65,38.25,11.85,28.2
2026/05/04 21:49:41.14,IMU,185.06,728.03,735.84,4.22,2.53,1.54,-49.95,37.20,13.35,28.0
2026/05/04 21:49:41.24,IMU,234.86,666.50,619.14,3.32,-6.31,0.99,-50.55,37.65,13.50,28.0
2026/05/04 21:49:41.34,IMU,265.14,625.49,634.77,-3.18,-3.66,8.15,-49.95,39.45,11.85,28.2
2026/05/04 21:49:41.44,IMU,248.54,689.94,680.66,-0.98,-17.27,2.36,-51.00,37.20,11.85,28.4
2026/05/04 21:49:41.54,IMU,218.26,749.02,720.70,6.17,-10.76,2.21,-52.80,38.85,11.70,28.4
2026/05/04 21:49:41.64,IMU,311.04,613.77,515.14,1.66,-6.60,-4.47,-51.75,37.95,10.80,28.0
2026/05/04 21:49:41.74,IMU,398.44,687.01,563.96,1.51,13.34,-8.69,-52.50,37.95,10.05,28.0
2026/05/04 21:49:41.84,IMU,196.78,670.90,703.13,6.33,-11.24,17.81,-50.10,38.10,9.15,28.0
2026/05/04 21:49:41.94,IMU,242.68,702.15,642.58,13.70,-25.15,12.91,-52.50,38.70,9.60,28.2
2026/05/04 21:49:42.04,IMU,363.28,640.63,515.63,2.69,-24.75,-2.91,-53.40,37.35,8.10,28.4
2026/05/04 21:49:42.14,IMU,393.55,811.52,636.23,3.99,7.73,-3.99,-52.80,38.85,8.70,27.9
2026/05/04 21:49:42.24,IMU,301.27,729.98,616.70,-1.21,9.78,-9.46,-52.20,37.95,7.20,28.4
2026/05/04 21:49:42.34,IMU,320.31,683.11,527.34,-0.51,1.20,-4.26,-52.80,38.40,9.45,28.0
2026/05/04 21:49:42.44,IMU,307.62,707.52,583.50,-3.50,3.60,0.44,-53.10,40.05,7.65,28.4
2026/05/04 21:49:42.54,IMU,298.83,703.13,636.23,1.78,4.33,-3.28,-55.50,36.75,11.10,28.3
2026/05/04 21:49:42.64,IMU,274.41,723.63,584.96,-4.10,15.20,-2.73,-52.50,37.95,8.55,28.3
2026/05/04 21:49:42.74,IMU,277.83,696.78,641.60,-0.78,-1.47,1.85,-51.75,39.00,9.00,28.0
2026/05/04 21:49:42.84,IMU,262.21,692.38,607.42,3.82,-8.00,-0.54,-52.35,36.90,8.70,28.3
2026/05/04 21:49:42.96,IMU,337.40,736.82,574.71,0.65,-11.92,-3.21,-52.80,37.65,8.40,28.4
2026/05/04 21:49:43.06,IMU,348.63,736.33,561.04,0.89,-1.69,3.69,-53.10,38.40,7.65,28.0
2026/05/04 21:49:43.16,IMU,322.75,675.78,538.57,30.53,-13.85,25.09,-53.25,38.25,6.75,28.2
2026/05/04 21:49:43.26,IMU,327.64,727.54,609.86,-3.00,-4.40,-7.16,-52.95,39.00,6.45,28.3
2026/05/04 21:49:43.36,IMU,311.04,775.39,565.92,-3.32,-0.90,1.21,-55.05,40.50,7.50,28.3
2026/05/04 21:49:43.46,IMU,304.69,715.33,582.52,0.47,-4.97,4.53,-53.70,38.70,6.45,28.2
2026/05/04 21:49:43.56,IMU,353.52,762.21,568.36,-0.50,8.04,2.53,-57.30,37.20,10.35,28.0
2026/05/04 21:49:43.66,IMU,322.75,700.20,538.57,-0.92,7.89,-3.27,-54.60,38.40,6.30,28.4
2026/05/04 21:49:43.76,IMU,301.76,746.09,605.47,2.31,-1.42,2.64,-52.95,37.95,6.00,28.2
2026/05/04 21:49:43.86,IMU,323.24,729.49,545.41,-0.24,2.13,-0.64,-53.70,39.45,7.20,28.3
2026/05/04 21:49:43.96,IMU,318.36,754.88,586.91,-0.86,0.16,0.95,-53.10,38.85,6.60,28.4
2026/05/04 21:49:44.06,IMU,343.26,729.98,540.04,1.66,3.15,-0.41,-53.10,38.10,6.60,28.2
2026/05/04 21:49:44.16,IMU,312.99,713.87,518.55,4.44,11.59,11.47,-54.60,38.10,8.70,28.0
2026/05/04 21:49:44.26,IMU,320.80,724.12,599.61,-3.57,13.27,-4.95,-51.75,38.25,7.80,28.2
2026/05/04 21:49:44.36,IMU,296.39,701.17,556.15,-1.15,2.57,-5.58,-52.80,38.85,9.90,28.2
2026/05/04 21:49:44.46,IMU,267.58,734.86,595.70,-2.24,0.08,-3.92,-52.35,39.60,10.50,28.3
2026/05/04 21:49:44.57,IMU,311.04,733.40,565.43,0.72,-4.53,-1.49,-56.40,37.35,12.75,28.0
2026/05/04 21:49:44.67,IMU,257.81,715.33,583.98,4.99,0.19,3.50,-51.75,39.45,9.30,28.0
2026/05/04 21:49:44.77,IMU,278.81,729.00,582.52,1.48,-2.93,2.43,-52.20,38.25,9.00,28.0
2026/05/04 21:49:44.87,IMU,284.67,729.98,581.54,1.10,-5.29,-0.44,-52.95,38.25,7.80,28.2
2026/05/04 21:49:44.97,IMU,295.41,715.33,564.94,-0.82,0.13,-4.22,-52.20,38.25,9.30,28.1
2026/05/04 21:49:45.07,IMU,315.92,695.80,539.55,1.86,-8.09,2.71,-50.85,39.15,9.90,28.1
2026/05/04 21:49:45.17,IMU,242.19,740.23,646.00,-3.28,15.31,-6.85,-52.80,39.15,9.15,28.2
2026/05/04 21:49:45.27,IMU,281.74,772.95,569.82,0.18,-8.89,5.63,-52.05,39.15,9.90,28.2
2026/05/04 21:49:45.37,IMU,295.90,664.55,606.45,-9.66,1.64,5.22,-52.80,38.85,9.90,28.4
2026/05/04 21:49:45.47,IMU,312.50,732.42,514.65,7.09,-6.85,1.20,-52.20,37.20,8.25,28.1
2026/05/04 21:49:45.57,IMU,352.05,758.30,600.59,6.26,-0.78,5.82,-52.05,38.10,8.10,28.0
2026/05/04 21:49:45.67,IMU,291.50,698.24,600.10,-3.17,3.13,0.52,-53.10,38.40,9.15,28.2
2026/05/04 21:49:45.77,IMU,317.38,652.83,593.75,-2.11,4.59,-2.12,-52.95,38.25,8.55,28.4
2026/05/04 21:49:45.87,IMU,329.59,732.42,576.66,1.60,-6.69,-10.61,-52.50,37.50,9.60,28.2
2026/05/04 21:49:45.97,IMU,306.64,755.86,585.94,-3.89,-4.69,-4.95,-52.95,38.25,8.25,28.1
2026/05/04 21:49:46.07,IMU,348.14,798.83,493.16,2.51,-1.66,-3.81,-52.50,37.95,6.75,28.0
2026/05/04 21:49:46.17,IMU,315.92,723.63,606.45,3.98,1.02,-0.19,-53.70,38.70,8.25,28.3
2026/05/04 21:49:46.27,IMU,245.61,647.46,609.38,-1.47,-2.42,-0.53,-52.95,38.25,8.25,28.2
2026/05/04 21:49:46.37,IMU,329.59,783.20,584.96,0.16,-3.53,-5.18,-52.95,39.00,7.20,28.2
2026/05/04 21:49:46.47,IMU,320.31,694.34,574.71,-3.47,3.69,-1.24,-52.95,39.00,7.80,28.0
2026/05/04 21:49:46.57,IMU,275.88,647.46,538.09,-4.86,-0.25,-2.89,-52.95,39.00,8.25,28.2
2026/05/04 21:49:46.68,IMU,351.07,759.77,611.82,3.21,-0.73,-2.72,-52.80,38.40,6.30,27.9
2026/05/04 21:49:46.78,IMU,327.64,752.44,520.51,0.28,5.09,-0.83,-50.70,39.75,7.50,28.1
2026/05/04 21:49:46.88,IMU,272.46,669.92,607.91,-1.97,-2.38,3.59,-53.70,37.50,7.50,28.2
2026/05/04 21:49:46.98,IMU,295.90,671.88,605.47,-3.84,1.28,-7.62,-53.40,38.10,8.40,28.2
2026/05/04 21:49:47.08,IMU,301.76,748.05,617.68,1.24,5.47,-7.98,-51.75,39.45,6.45,28.0
2026/05/04 21:49:47.18,IMU,286.62,744.63,568.85,-5.47,-37.62,9.47,-53.40,36.90,6.90,28.0
2026/05/04 21:49:47.28,IMU,375.98,754.88,511.72,3.79,-16.23,10.18,-53.25,37.50,6.00,27.9
2026/05/04 21:49:47.38,IMU,364.75,660.64,617.68,1.66,15.94,-2.95,-53.70,39.00,6.00,28.2
2026/05/04 21:49:47.48,IMU,250.49,651.86,698.24,-1.43,0.63,10.11,-53.40,38.40,8.40,27.8
2026/05/04 21:49:47.58,IMU,283.69,691.89,646.00,-6.79,-6.86,-4.88,-54.00,38.70,8.55,28.2
2026/05/04 21:49:47.68,IMU,296.88,745.61,599.12,1.76,-5.81,-5.27,-54.00,37.50,7.20,28.0
2026/05/04 21:49:47.78,IMU,370.12,723.63,544.92,19.29,-4.36,-12.60,-54.45,39.45,7.20,28.0
2026/05/04 21:49:47.88,IMU,291.99,730.96,627.44,-9.51,8.36,-6.28,-52.50,40.20,7.80,27.9
2026/05/04 21:49:47.98,IMU,278.81,696.29,652.34,-13.79,6.00,-3.16,-53.10,38.85,8.10,28.4
2026/05/04 21:49:48.08,IMU,248.54,615.72,632.81,-9.54,4.07,-0.70,-53.10,39.60,8.40,28.0
2026/05/04 21:49:48.18,IMU,235.84,667.48,681.64,1.42,1.51,-12.09,-51.75,40.20,9.00,28.2
2026/05/04 21:49:48.28,IMU,155.27,693.36,672.85,-10.50,-8.89,-19.69,-51.00,39.00,9.60,28.1
2026/05/04 21:49:48.38,IMU,271.97,667.48,647.46,-4.64,-18.25,-16.82,-52.95,40.95,9.00,28.0
2026/05/04 21:49:48.48,IMU,259.28,731.93,587.40,5.53,-11.88,-8.57,-51.60,42.30,6.60,28.2
2026/05/04 21:49:48.58,IMU,272.46,753.42,592.77,9.12,5.82,-5.01,-51.45,43.20,5.40,28.1
2026/05/04 21:49:48.68,IMU,190.43,723.14,623.54,14.32,4.85,13.70,-51.75,42.90,4.20,28.4
2026/05/04 21:49:48.78,IMU,280.76,753.42,537.60,11.83,-6.16,17.14,-53.10,41.85,3.30,28.0
2026/05/04 21:49:48.90,IMU,273.44,735.35,590.33,-5.05,11.20,10.68,-53.10,39.60,5.10,28.2
2026/05/04 21:49:49.00,IMU,252.93,724.61,611.82,1.03,-3.24,-7.74,-53.70,41.25,6.75,28.3
2026/05/04 21:49:49.10,IMU,284.18,735.35,595.70,-5.66,-2.36,-6.27,-53.10,42.30,5.55,28.2
2026/05/04 21:49:49.20,IMU,260.74,707.03,626.46,-5.67,0.46,-1.19,-53.25,42.45,6.00,28.1
2026/05/04 21:49:49.30,IMU,267.58,721.68,595.70,2.64,2.60,-3.40,-53.70,41.70,5.70,28.0
2026/05/04 21:49:49.40,IMU,285.64,737.30,592.77,4.69,-1.87,-4.08,-52.80,43.05,4.80,28.2
2026/05/04 21:49:49.50,IMU,284.18,723.63,617.68,2.33,-3.87,-0.91,-51.75,42.90,5.40,28.4
2026/05/04 21:49:49.60,IMU,256.84,704.59,587.89,2.35,2.66,3.67,-53.40,40.80,5.55,28.0
2026/05/04 21:49:49.70,IMU,252.93,750.98,604.49,2.10,0.05,1.11,-52.50,41.70,4.20,28.0
2026/05/04 21:49:49.80,IMU,251.95,718.75,593.26,0.05,-3.89,0.75,-52.95,43.20,5.40,28.2
2026/05/04 21:49:49.90,IMU,316.41,727.54,576.17,3.75,-0.63,-1.79,-52.20,42.45,4.95,28.0
2026/05/04 21:49:50.00,IMU,274.41,717.29,563.96,0.47,2.35,0.44,-52.50,42.00,5.70,28.1
2026/05/04 21:49:50.10,IMU,267.58,732.91,615.23,-1.58,2.92,-1.69,-53.40,42.60,5.55,28.3
2026/05/04 21:49:50.20,IMU,266.11,729.98,578.13,1.87,-6.10,3.39,-52.80,41.10,5.55,28.4
2026/05/04 21:49:50.30,IMU,295.90,744.63,586.91,1.53,-3.08,4.24,-53.10,41.85,5.55,28.2
2026/05/04 21:49:50.40,IMU,274.41,737.30,586.91,3.68,1.79,0.31,-53.25,41.70,3.90,28.0
2026/05/04 21:49:50.51,IMU,307.62,739.75,562.99,3.16,37.92,-0.63,-54.00,40.50,4.65,28.1
2026/05/04 21:49:50.61,IMU,255.86,726.56,628.42,-4.74,2.08,-1.93,-53.70,42.45,4.20,28.2
2026/05/04 21:49:50.71,IMU,297.85,731.93,582.52,0.60,1.31,-3.02,-52.50,40.95,5.70,28.4
2026/05/04 21:49:50.81,IMU,277.83,719.24,572.75,-0.71,1.51,-2.08,-53.10,41.55,6.60,28.0
2026/05/04 21:49:50.91,IMU,279.30,726.56,586.43,0.24,2.27,0.26,-53.10,43.05,5.55,28.2
2026/05/04 21:49:51.01,IMU,276.86,715.82,567.38,-1.20,3.57,-1.18,-53.25,41.25,5.70,28.4
2026/05/04 21:49:51.11,IMU,239.75,734.86,618.16,-1.74,3.15,2.62,-52.05,41.10,5.55,28.2
2026/05/04 21:49:51.21,IMU,241.21,720.21,583.50,-4.76,-1.50,-4.08,-52.50,40.95,4.95,28.0
2026/05/04 21:49:51.31,IMU,294.92,719.24,603.52,-0.78,4.89,2.61,-53.25,41.70,5.70,28.2
2026/05/04 21:49:51.41,IMU,273.44,719.73,582.52,2.66,12.98,-1.34,-53.10,41.55,6.60,28.3
2026/05/04 21:49:51.51,IMU,229.00,720.21,607.42,4.46,5.52,0.37,-51.60,42.30,7.35,28.0
2026/05/04 21:49:51.61,IMU,257.81,749.51,602.05,-0.86,15.13,-6.35,-52.05,42.60,7.35,28.2
2026/05/04 21:49:51.71,IMU,187.01,702.64,602.54,-0.31,15.96,2.92,-55.35,41.55,11.70,28.2
2026/05/04 21:49:51.81,IMU,196.29,720.21,633.30,2.27,-2.98,-0.27,-51.75,42.45,9.00,28.3
2026/05/04 21:49:51.91,IMU,211.91,719.73,596.19,3.40,0.50,1.79,-49.95,43.20,7.50,28.4
2026/05/04 21:49:52.01,IMU,229.49,748.54,549.32,1.56,20.10,7.72,-52.05,41.85,8.10,28.0
2026/05/04 21:49:52.11,IMU,205.08,725.59,690.92,-4.95,42.15,-0.08,-52.05,42.30,8.10,28.2
2026/05/04 21:49:52.21,IMU,150.88,718.26,608.40,3.24,20.05,1.05,-50.10,43.80,9.90,27.8
2026/05/04 21:49:52.31,IMU,142.09,739.26,589.36,-2.79,9.79,1.74,-49.20,42.45,11.85,28.2
2026/05/04 21:49:52.41,IMU,174.32,733.40,620.61,16.28,-11.64,5.50,-48.15,41.25,11.10,28.1
2026/05/04 21:49:52.51,IMU,172.36,738.77,622.07,-0.18,-2.32,3.14,-51.30,41.10,10.95,28.4
2026/05/04 21:49:52.61,IMU,183.11,736.82,621.09,3.01,-2.51,2.03,-50.40,42.45,11.85,28.1
2026/05/04 21:49:52.73,IMU,137.21,731.45,641.60,-8.75,13.61,-2.75,-54.00,40.20,14.40,28.4
2026/05/04 21:49:52.82,IMU,172.36,720.70,642.58,-3.28,-3.14,2.26,-48.90,41.70,11.85,28.2
2026/05/04 21:49:52.93,IMU,180.18,771.97,628.42,0.07,-0.68,3.31,-50.40,42.00,11.85,28.0
2026/05/04 21:49:53.03,IMU,159.18,764.16,634.28,3.40,-2.69,3.03,-48.75,41.55,11.25,28.3
2026/05/04 21:49:53.13,IMU,166.02,743.16,602.54,-1.20,1.01,-0.18,-49.05,41.85,12.45,28.4
2026/05/04 21:49:53.23,IMU,162.60,715.82,649.41,2.44,-11.58,3.21,-48.30,41.55,10.95,28.3
2026/05/04 21:49:53.33,IMU,168.95,739.75,646.48,7.08,-11.10,5.06,-48.90,42.90,12.60,28.2
2026/05/04 21:49:53.43,IMU,168.46,742.68,610.84,2.08,2.80,1.37,-49.65,41.25,10.80,28.1
2026/05/04 21:49:53.53,IMU,143.55,727.54,632.81,-2.17,-3.31,0.41,-49.05,42.60,12.00,28.2
2026/05/04 21:49:53.63,IMU,158.20,746.58,625.00,3.82,-0.68,0.59,-49.80,41.55,11.25,28.0
2026/05/04 21:49:53.75,IMU,162.60,746.09,628.42,0.58,-1.08,-1.60,-52.95,37.95,16.50,28.2
2026/05/04 21:49:53.84,IMU,181.64,746.09,628.42,0.31,1.76,-1.08,-49.80,42.60,11.25,28.0
2026/05/04 21:49:53.94,IMU,170.90,736.82,612.79,1.88,2.08,2.53,-50.40,41.25,11.10,28.2
2026/05/04 21:49:54.05,IMU,165.04,746.09,624.51,-1.31,1.45,-1.95,-51.30,41.85,12.75,28.0
2026/05/04 21:49:54.15,IMU,169.43,733.40,624.02,-1.44,-0.02,-3.36,-50.10,43.05,11.70,28.2
2026/05/04 21:49:54.25,IMU,163.57,747.07,615.23,1.67,-1.10,-3.76,-49.95,40.95,11.85,28.0
2026/05/04 21:49:54.35,IMU,173.83,742.19,611.82,-0.79,-0.97,1.49,-48.75,42.30,9.90,28.3
2026/05/04 21:49:54.45,IMU,186.52,730.47,604.98,4.49,-6.72,4.65,-49.05,41.85,11.70,28.1
2026/05/04 21:49:54.55,IMU,174.32,735.35,617.68,-1.61,-2.76,0.97,-49.05,40.80,11.25,28.1
2026/05/04 21:49:54.65,IMU,173.83,724.12,656.25,-2.39,0.26,-2.76,-49.95,42.45,10.80,28.0
2026/05/04 21:49:54.75,IMU,179.20,740.23,591.31,-3.75,11.41,-2.34,-51.00,42.00,9.30,28.2
2026/05/04 21:49:54.85,IMU,192.87,746.09,598.63,-2.02,3.69,-3.18,-49.95,42.45,11.10,28.0
2026/05/04 21:49:54.95,IMU,198.24,745.61,622.56,0.49,-0.34,-1.40,-50.70,39.75,11.10,28.1
2026/05/04 21:49:55.05,IMU,193.36,738.28,589.36,0.72,3.44,3.50,-50.85,41.10,10.50,28.4
2026/05/04 21:49:55.15,IMU,179.69,742.68,614.26,1.75,-1.80,-2.18,-49.95,41.25,10.35,28.3
2026/05/04 21:49:55.25,IMU,200.20,736.82,591.31,1.18,0.61,-2.49,-50.10,41.55,10.50,28.2
2026/05/04 21:49:55.35,IMU,177.25,734.86,612.79,1.44,-0.08,1.64,-49.65,41.25,10.05,28.4
2026/05/04 21:49:55.45,IMU,164.06,764.16,629.88,0.27,0.06,0.72,-50.85,41.85,11.70,28.4
2026/05/04 21:49:55.55,IMU,186.04,751.46,585.45,-0.04,1.43,2.19,-50.70,42.00,11.55,28.2
2026/05/04 21:49:55.65,IMU,192.87,751.95,589.36,0.32,1.11,-2.11,-50.55,41.85,11.25,28.2
2026/05/04 21:49:55.75,IMU,192.38,738.77,603.52,2.15,1.02,-1.25,-49.95,41.25,10.35,28.2
2026/05/04 21:49:55.87,IMU,190.43,752.93,616.70,-0.89,4.22,-1.23,-50.55,43.05,8.70,28.2
2026/05/04 21:49:55.97,IMU,170.41,761.23,603.52,0.44,3.00,1.63,-50.10,41.55,10.95,28.3
2026/05/04 21:49:56.07,IMU,185.55,751.95,613.77,0.50,-2.04,0.05,-50.10,40.35,10.95,28.0
2026/05/04 21:49:56.17,IMU,193.36,759.77,606.45,-1.27,2.50,-1.98,-50.10,41.55,9.45,28.2
2026/05/04 21:49:56.27,IMU,164.06,732.42,605.96,-1.27,0.84,-2.71,-50.10,41.85,9.90,28.0
2026/05/04 21:49:56.37,IMU,188.96,738.28,605.47,0.49,-2.92,-0.40,-49.95,42.00,10.05,28.0
2026/05/04 21:49:56.47,IMU,188.48,747.07,626.95,1.18,3.33,-0.11,-48.75,42.30,12.00,28.3
2026/05/04 21:49:56.57,IMU,169.43,759.77,611.82,-1.50,2.02,-3.05,-49.80,40.35,11.25,28.0
2026/05/04 21:49:56.67,IMU,185.55,753.42,611.33,1.14,-0.80,3.95,-50.55,42.30,10.50,28.1
2026/05/04 21:49:56.77,IMU,166.50,746.09,597.17,-1.78,-2.78,-0.40,-49.80,43.35,10.20,28.1
2026/05/04 21:49:56.87,IMU,176.76,761.23,607.42,0.41,-3.92,1.55,-49.95,42.90,9.30,28.1
2026/05/04 21:49:56.97,IMU,181.64,754.88,610.35,2.02,2.96,1.04,-50.10,42.60,9.45,28.4
2026/05/04 21:49:57.07,IMU,180.66,751.46,599.12,0.31,-2.73,0.96,-50.10,43.35,10.95,28.4
2026/05/04 21:49:57.18,IMU,168.46,755.86,603.03,0.61,1.82,-1.85,-50.40,42.45,9.00,28.0
2026/05/04 21:49:57.28,IMU,181.64,749.51,599.12,0.56,-2.24,-0.31,-50.40,43.65,9.60,28.4
2026/05/04 21:49:57.38,IMU,181.64,764.65,603.52,1.56,0.68,-0.04,-50.10,42.30,10.50,28.1
2026/05/04 21:49:57.48,IMU,177.73,755.37,601.07,0.30,2.47,-3.17,-48.75,43.05,10.20,28.1
